t	PV [ºC]	SP [ºC]	MV[A]
0,000	0,000	70,000	0,000E+0
0,000	0,000	70,000	0,000E+0
1,994	28,772	70,000	0,000E+0
1,994	28,772	70,000	0,000E+0
1,994	28,772	70,000	0,000E+0
4,012	28,802	70,000	0,000E+0
4,012	28,802	70,000	0,000E+0
6,033	28,797	70,000	0,000E+0
6,033	28,797	70,000	0,000E+0
8,049	28,794	70,000	0,000E+0
8,049	28,794	70,000	0,000E+0
10,068	28,771	70,000	0,000E+0
10,068	28,771	70,000	0,000E+0
12,085	28,764	70,000	0,000E+0
12,085	28,764	70,000	0,000E+0
14,104	28,754	70,000	0,000E+0
14,104	28,754	70,000	0,000E+0
16,122	28,768	70,000	0,000E+0
16,122	28,768	70,000	0,000E+0
18,141	28,815	70,000	0,000E+0
18,141	28,815	70,000	0,000E+0
20,160	28,825	70,000	0,000E+0
20,160	28,825	70,000	0,000E+0
22,178	28,853	70,000	0,000E+0
22,178	28,853	70,000	0,000E+0
24,197	28,833	70,000	0,000E+0
24,197	28,833	70,000	0,000E+0
26,213	28,830	70,000	0,000E+0
26,213	28,830	70,000	0,000E+0
28,234	28,825	70,000	0,000E+0
28,234	28,825	70,000	0,000E+0
30,251	28,822	70,000	0,000E+0
30,251	28,822	70,000	0,000E+0
32,271	28,786	70,000	0,000E+0
32,271	28,786	70,000	0,000E+0
34,288	28,817	70,000	0,000E+0
34,288	28,817	70,000	0,000E+0
36,309	28,854	70,000	0,000E+0
36,309	28,854	70,000	0,000E+0
38,326	28,841	70,000	0,000E+0
38,326	28,841	70,000	0,000E+0
40,346	28,846	70,000	0,000E+0
40,346	28,846	70,000	0,000E+0
42,363	28,851	70,000	0,000E+0
42,363	28,851	70,000	0,000E+0
44,384	28,874	70,000	0,000E+0
44,384	28,874	70,000	0,000E+0
46,400	28,856	70,000	0,000E+0
46,400	28,856	70,000	0,000E+0
48,421	28,892	70,000	0,000E+0
48,421	28,892	70,000	0,000E+0
50,438	28,907	70,000	0,000E+0
50,438	28,907	70,000	0,000E+0
52,456	28,920	70,000	0,000E+0
52,456	28,920	70,000	0,000E+0
54,473	28,927	70,000	0,000E+0
54,473	28,927	70,000	0,000E+0
56,492	28,972	70,000	0,000E+0
56,492	28,972	70,000	0,000E+0
58,508	28,932	70,000	0,000E+0
58,508	28,932	70,000	0,000E+0
60,527	28,961	70,000	0,000E+0
60,527	28,961	70,000	0,000E+0
62,543	28,939	70,000	0,000E+0
62,543	28,939	70,000	0,000E+0
64,562	28,944	70,000	0,000E+0
64,562	28,944	70,000	0,000E+0
66,579	28,967	70,000	0,000E+0
66,579	28,967	70,000	0,000E+0
68,595	28,969	70,000	0,000E+0
68,595	28,969	70,000	0,000E+0
70,616	28,975	70,000	0,000E+0
70,616	28,975	70,000	0,000E+0
72,633	29,003	70,000	0,000E+0
72,633	29,003	70,000	0,000E+0
74,654	28,972	70,000	0,000E+0
74,654	28,972	70,000	0,000E+0
76,670	28,970	70,000	0,000E+0
76,670	28,970	70,000	0,000E+0
78,689	28,992	70,000	0,000E+0
78,689	28,992	70,000	0,000E+0
80,706	29,025	70,000	0,000E+0
80,706	29,025	70,000	0,000E+0
82,724	29,017	70,000	0,000E+0
82,724	29,017	70,000	0,000E+0
84,741	29,063	70,000	0,000E+0
84,741	29,063	70,000	0,000E+0
86,760	29,063	70,000	0,000E+0
86,760	29,063	70,000	0,000E+0
88,778	29,088	70,000	0,000E+0
88,778	29,088	70,000	0,000E+0
90,799	29,126	70,000	0,000E+0
90,799	29,126	70,000	0,000E+0
92,815	29,148	70,000	0,000E+0
92,815	29,148	70,000	0,000E+0
94,836	29,199	70,000	0,000E+0
94,836	29,199	70,000	0,000E+0
96,853	29,194	70,000	0,000E+0
96,853	29,194	70,000	0,000E+0
98,872	29,179	70,000	0,000E+0
98,872	29,179	70,000	0,000E+0
100,891	29,209	70,000	0,000E+0
100,891	29,209	70,000	0,000E+0
102,909	29,217	70,000	0,000E+0
102,909	29,217	70,000	0,000E+0
104,928	29,179	70,000	0,000E+0
104,928	29,179	70,000	0,000E+0
106,948	29,246	70,000	0,000E+0
106,948	29,246	70,000	0,000E+0
108,967	29,308	70,000	0,000E+0
108,967	29,308	70,000	0,000E+0
110,986	29,297	70,000	0,000E+0
110,986	29,297	70,000	0,000E+0
113,004	29,282	70,000	0,000E+0
113,004	29,282	70,000	0,000E+0
115,021	29,266	70,000	0,000E+0
115,021	29,266	70,000	0,000E+0
117,040	29,275	70,000	0,000E+0
117,040	29,275	70,000	0,000E+0
117,040	29,275	70,000	0,000E+0
119,056	29,160	70,000	0,000E+0
121,043	29,160	70,000	0,000E+0
121,043	29,160	70,000	0,000E+0
121,043	29,160	70,000	0,000E+0
123,066	29,421	70,000	0,000E+0
123,066	29,421	70,000	0,000E+0
125,084	29,416	70,000	0,000E+0
125,084	29,416	70,000	0,000E+0
127,101	29,415	70,000	0,000E+0
127,101	29,415	70,000	0,000E+0
129,120	29,408	70,000	0,000E+0
129,120	29,408	70,000	0,000E+0
131,136	29,446	70,000	0,000E+0
131,136	29,446	70,000	0,000E+0
133,157	29,456	70,000	0,000E+0
133,157	29,456	70,000	0,000E+0
135,176	29,420	70,000	0,000E+0
135,176	29,420	70,000	0,000E+0
137,197	29,410	70,000	0,000E+0
137,197	29,410	70,000	0,000E+0
139,213	29,465	70,000	0,000E+0
139,213	29,465	70,000	0,000E+0
141,232	29,504	70,000	0,000E+0
141,232	29,504	70,000	0,000E+0
143,249	29,519	70,000	0,000E+0
143,249	29,519	70,000	0,000E+0
145,265	29,529	70,000	0,000E+0
145,265	29,529	70,000	0,000E+0
147,284	29,537	70,000	0,000E+0
147,284	29,537	70,000	0,000E+0
149,303	29,608	70,000	0,000E+0
149,303	29,608	70,000	0,000E+0
151,321	29,623	70,000	0,000E+0
151,321	29,623	70,000	0,000E+0
153,338	29,650	70,000	0,000E+0
153,338	29,650	70,000	0,000E+0
155,359	29,603	70,000	0,000E+0
155,359	29,603	70,000	0,000E+0
157,375	29,620	70,000	0,000E+0
157,375	29,620	70,000	0,000E+0
159,396	29,628	70,000	0,000E+0
159,396	29,628	70,000	0,000E+0
161,412	29,648	70,000	0,000E+0
161,412	29,648	70,000	0,000E+0
163,431	29,675	70,000	0,000E+0
163,431	29,675	70,000	0,000E+0
165,450	29,660	70,000	0,000E+0
165,450	29,660	70,000	0,000E+0
167,466	29,663	70,000	0,000E+0
167,466	29,663	70,000	0,000E+0
169,483	29,675	70,000	0,000E+0
169,483	29,675	70,000	0,000E+0
171,501	29,617	70,000	0,000E+0
171,501	29,617	70,000	0,000E+0
173,518	29,690	70,000	0,000E+0
173,518	29,690	70,000	0,000E+0
175,537	29,718	70,000	0,000E+0
175,537	29,718	70,000	0,000E+0
177,553	29,721	70,000	0,000E+0
177,553	29,721	70,000	0,000E+0
179,574	29,733	70,000	0,000E+0
179,574	29,733	70,000	0,000E+0
181,592	29,768	70,000	0,000E+0
181,592	29,768	70,000	0,000E+0
183,611	29,809	70,000	0,000E+0
183,611	29,809	70,000	0,000E+0
185,630	29,809	70,000	0,000E+0
185,630	29,809	70,000	0,000E+0
187,648	29,874	70,000	0,000E+0
187,648	29,874	70,000	0,000E+0
189,669	29,900	70,000	0,000E+0
189,669	29,900	70,000	0,000E+0
191,689	29,920	70,000	0,000E+0
191,689	29,920	70,000	0,000E+0
193,706	29,852	70,000	0,000E+0
193,706	29,852	70,000	0,000E+0
195,727	29,882	70,000	0,000E+0
195,727	29,882	70,000	0,000E+0
197,743	29,894	70,000	0,000E+0
197,743	29,894	70,000	0,000E+0
199,764	29,902	70,000	0,000E+0
199,764	29,902	70,000	0,000E+0
201,783	29,844	70,000	0,000E+0
201,783	29,844	70,000	0,000E+0
203,799	29,852	70,000	0,000E+0
203,799	29,852	70,000	0,000E+0
205,818	29,905	70,000	0,000E+0
205,818	29,905	70,000	0,000E+0
207,837	29,892	70,000	0,000E+0
207,837	29,892	70,000	0,000E+0
209,853	29,943	70,000	0,000E+0
209,853	29,943	70,000	0,000E+0
211,872	29,983	70,000	0,000E+0
211,872	29,983	70,000	0,000E+0
213,889	29,983	70,000	0,000E+0
213,889	29,983	70,000	0,000E+0
215,907	29,960	70,000	0,000E+0
215,907	29,960	70,000	0,000E+0
217,924	30,001	70,000	0,000E+0
217,924	30,001	70,000	0,000E+0
219,942	30,046	70,000	0,000E+0
219,942	30,046	70,000	0,000E+0
221,961	30,082	70,000	0,000E+0
221,961	30,082	70,000	0,000E+0
223,980	30,036	70,000	0,000E+0
223,980	30,036	70,000	0,000E+0
225,996	30,076	70,000	0,000E+0
225,996	30,076	70,000	0,000E+0
228,015	30,147	70,000	0,000E+0
228,015	30,147	70,000	0,000E+0
230,031	30,152	70,000	0,000E+0
230,031	30,152	70,000	0,000E+0
232,052	30,126	70,000	0,000E+0
232,052	30,126	70,000	0,000E+0
234,069	30,145	70,000	0,000E+0
234,069	30,145	70,000	0,000E+0
234,069	30,145	70,000	0,000E+0
236,087	30,155	70,000	0,000E+0
236,087	30,155	70,000	0,000E+0
238,106	30,182	70,000	0,000E+0
238,106	30,182	70,000	0,000E+0
240,125	30,114	70,000	0,000E+0
240,125	30,114	70,000	0,000E+0
242,141	30,187	70,000	0,000E+0
242,141	30,187	70,000	0,000E+0
244,160	30,258	70,000	0,000E+0
244,160	30,258	70,000	0,000E+0
246,179	30,290	70,000	0,000E+0
246,179	30,290	70,000	0,000E+0
248,197	30,277	70,000	0,000E+0
248,197	30,277	70,000	0,000E+0
250,216	30,301	70,000	0,000E+0
250,216	30,301	70,000	0,000E+0
252,234	30,250	70,000	0,000E+0
252,234	30,250	70,000	0,000E+0
254,251	30,232	70,000	0,000E+0
254,251	30,232	70,000	0,000E+0
256,270	30,230	70,000	0,000E+0
256,270	30,230	70,000	0,000E+0
258,286	30,218	70,000	0,000E+0
258,286	30,218	70,000	0,000E+0
260,305	30,220	70,000	0,000E+0
260,305	30,220	70,000	0,000E+0
262,322	30,230	70,000	0,000E+0
262,322	30,230	70,000	0,000E+0
264,340	30,245	70,000	0,000E+0
264,340	30,245	70,000	0,000E+0
266,358	30,283	70,000	0,000E+0
266,358	30,283	70,000	0,000E+0
268,376	30,364	70,000	0,000E+0
268,376	30,364	70,000	0,000E+0
270,394	30,394	70,000	0,000E+0
270,394	30,394	70,000	0,000E+0
272,413	30,411	70,000	0,000E+0
272,413	30,411	70,000	0,000E+0
274,430	30,429	70,000	0,000E+0
274,430	30,429	70,000	0,000E+0
276,448	30,401	70,000	0,000E+0
276,448	30,401	70,000	0,000E+0
278,465	30,403	70,000	0,000E+0
278,465	30,403	70,000	0,000E+0
280,482	30,376	70,000	0,000E+0
280,482	30,376	70,000	0,000E+0
282,500	30,323	70,000	0,000E+0
282,500	30,323	70,000	0,000E+0
284,517	30,356	70,000	0,000E+0
284,517	30,356	70,000	0,000E+0
286,535	30,351	70,000	0,000E+0
286,535	30,351	70,000	0,000E+0
288,554	30,364	70,000	0,000E+0
288,554	30,364	70,000	0,000E+0
290,571	30,404	70,000	0,000E+0
290,571	30,404	70,000	0,000E+0
292,589	30,422	70,000	0,000E+0
292,589	30,422	70,000	0,000E+0
294,608	30,422	70,000	0,000E+0
294,608	30,422	70,000	0,000E+0
296,627	30,424	70,000	0,000E+0
296,627	30,424	70,000	0,000E+0
298,643	30,487	70,000	0,000E+0
298,643	30,487	70,000	0,000E+0
300,662	30,494	70,000	0,000E+0
300,662	30,494	70,000	0,000E+0
302,679	30,461	70,000	0,000E+0
302,679	30,461	70,000	0,000E+0
304,697	30,472	70,000	0,000E+0
304,697	30,472	70,000	0,000E+0
306,714	30,500	70,000	0,000E+0
306,714	30,500	70,000	0,000E+0
308,732	30,466	70,000	0,000E+0
308,732	30,466	70,000	0,000E+0
310,749	30,532	70,000	0,000E+0
310,749	30,532	70,000	0,000E+0
312,768	30,585	70,000	0,000E+0
312,768	30,585	70,000	0,000E+0
314,782	30,605	70,000	0,000E+0
314,782	30,605	70,000	0,000E+0
316,801	30,537	70,000	0,000E+0
316,801	30,537	70,000	0,000E+0
318,817	30,504	70,000	0,000E+0
318,817	30,504	70,000	0,000E+0
320,834	30,486	70,000	0,000E+0
320,834	30,486	70,000	0,000E+0
322,855	30,468	70,000	0,000E+0
322,855	30,468	70,000	0,000E+0
324,872	30,514	70,000	0,000E+0
324,872	30,514	70,000	0,000E+0
326,890	30,582	70,000	0,000E+0
326,890	30,582	70,000	0,000E+0
328,909	30,549	70,000	0,000E+0
328,909	30,549	70,000	0,000E+0
330,927	30,554	70,000	0,000E+0
330,927	30,554	70,000	0,000E+0
332,946	30,511	70,000	0,000E+0
332,946	30,511	70,000	0,000E+0
334,963	30,524	70,000	0,000E+0
334,963	30,524	70,000	0,000E+0
336,979	30,595	70,000	0,000E+0
336,979	30,595	70,000	0,000E+0
339,000	30,635	70,000	0,000E+0
339,000	30,635	70,000	0,000E+0
341,017	30,645	70,000	0,000E+0
341,017	30,645	70,000	0,000E+0
343,037	30,713	70,000	0,000E+0
343,037	30,713	70,000	0,000E+0
345,054	30,705	70,000	0,000E+0
345,054	30,705	70,000	0,000E+0
347,075	30,639	70,000	0,000E+0
347,075	30,639	70,000	0,000E+0
349,091	30,619	70,000	0,000E+0
349,091	30,619	70,000	0,000E+0
351,110	30,624	70,000	0,000E+0
351,110	30,624	70,000	0,000E+0
351,110	30,624	70,000	0,000E+0
353,127	30,641	70,000	0,000E+0
353,127	30,641	70,000	0,000E+0
355,145	30,690	70,000	0,000E+0
355,145	30,690	70,000	0,000E+0
357,162	30,748	70,000	0,000E+0
357,162	30,748	70,000	0,000E+0
359,183	30,761	70,000	0,000E+0
359,183	30,761	70,000	0,000E+0
361,199	30,733	70,000	0,000E+0
361,199	30,733	70,000	0,000E+0
363,220	30,738	70,000	0,000E+0
363,220	30,738	70,000	0,000E+0
365,237	30,746	70,000	0,000E+0
365,237	30,746	70,000	0,000E+0
367,257	30,743	70,000	0,000E+0
367,257	30,743	70,000	0,000E+0
369,274	30,725	70,000	0,000E+0
369,274	30,725	70,000	0,000E+0
371,294	30,805	70,000	0,000E+0
371,294	30,805	70,000	0,000E+0
373,311	30,805	70,000	0,000E+0
373,311	30,805	70,000	0,000E+0
375,332	30,901	70,000	0,000E+0
375,332	30,901	70,000	0,000E+0
377,351	30,865	70,000	0,000E+0
377,351	30,865	70,000	0,000E+0
379,371	30,901	70,000	0,000E+0
379,371	30,901	70,000	0,000E+0
381,390	31,012	70,000	0,000E+0
381,390	31,012	70,000	0,000E+0
383,408	31,098	70,000	0,000E+0
383,408	31,098	70,000	0,000E+0
385,429	31,015	70,000	0,000E+0
385,429	31,015	70,000	0,000E+0
387,446	30,995	70,000	0,000E+0
387,446	30,995	70,000	0,000E+0
389,465	30,940	70,000	0,000E+0
389,465	30,940	70,000	0,000E+0
391,483	30,950	70,000	0,000E+0
391,483	30,950	70,000	0,000E+0
393,502	30,907	70,000	0,000E+0
393,502	30,907	70,000	0,000E+0
395,519	30,972	70,000	0,000E+0
395,519	30,972	70,000	0,000E+0
397,541	31,002	70,000	0,000E+0
397,541	31,002	70,000	0,000E+0
399,558	30,997	70,000	0,000E+0
399,558	30,997	70,000	0,000E+0
401,579	31,050	70,000	0,000E+0
401,579	31,050	70,000	0,000E+0
403,597	31,005	70,000	0,000E+0
403,597	31,005	70,000	0,000E+0
405,616	31,036	70,000	0,000E+0
405,616	31,036	70,000	0,000E+0
407,633	31,017	70,000	0,000E+0
407,633	31,017	70,000	0,000E+0
409,651	31,048	70,000	0,000E+0
409,651	31,048	70,000	0,000E+0
411,668	30,992	70,000	0,000E+0
411,668	30,992	70,000	0,000E+0
413,685	31,022	70,000	0,000E+0
413,685	31,022	70,000	0,000E+0
415,703	31,032	70,000	0,000E+0
415,703	31,032	70,000	0,000E+0
417,722	31,065	70,000	0,000E+0
417,722	31,065	70,000	0,000E+0
419,740	31,121	70,000	0,000E+0
419,740	31,121	70,000	0,000E+0
421,759	31,118	70,000	0,000E+0
421,759	31,118	70,000	0,000E+0
423,778	31,116	70,000	0,000E+0
423,778	31,116	70,000	0,000E+0
425,794	31,151	70,000	0,000E+0
425,794	31,151	70,000	0,000E+0
427,813	31,096	70,000	0,000E+0
427,813	31,096	70,000	0,000E+0
429,830	31,222	70,000	0,000E+0
429,830	31,222	70,000	0,000E+0
431,848	31,194	70,000	0,000E+0
431,848	31,194	70,000	0,000E+0
433,867	31,159	70,000	0,000E+0
433,867	31,159	70,000	0,000E+0
435,886	31,134	70,000	0,000E+0
435,886	31,134	70,000	0,000E+0
437,906	31,086	70,000	0,000E+0
437,906	31,086	70,000	0,000E+0
439,925	31,100	70,000	0,000E+0
439,925	31,100	70,000	0,000E+0
441,942	31,136	70,000	0,000E+0
441,942	31,136	70,000	0,000E+0
443,960	31,163	70,000	0,000E+0
443,960	31,163	70,000	0,000E+0
445,979	31,090	70,000	0,000E+0
445,979	31,090	70,000	0,000E+0
447,997	31,093	70,000	0,000E+0
447,997	31,093	70,000	0,000E+0
450,016	31,126	70,000	0,000E+0
450,016	31,126	70,000	0,000E+0
452,035	31,179	70,000	0,000E+0
452,035	31,179	70,000	0,000E+0
454,052	31,212	70,000	0,000E+0
454,052	31,212	70,000	0,000E+0
456,072	31,217	70,000	0,000E+0
456,072	31,217	70,000	0,000E+0
458,088	31,277	70,000	0,000E+0
458,088	31,277	70,000	0,000E+0
460,107	31,260	70,000	0,000E+0
460,107	31,260	70,000	0,000E+0
462,128	31,189	70,000	0,000E+0
462,128	31,189	70,000	0,000E+0
464,146	31,212	70,000	0,000E+0
464,146	31,212	70,000	0,000E+0
464,146	31,212	70,000	0,000E+0
466,165	31,280	70,000	0,000E+0
466,165	31,280	70,000	0,000E+0
468,184	31,351	70,000	0,000E+0
468,184	31,351	70,000	0,000E+0
470,202	31,310	70,000	0,000E+0
470,202	31,310	70,000	0,000E+0
472,219	31,316	70,000	0,000E+0
472,219	31,316	70,000	0,000E+0
474,238	31,243	70,000	0,000E+0
474,238	31,243	70,000	0,000E+0
476,256	31,258	70,000	0,000E+0
476,256	31,258	70,000	0,000E+0
478,273	31,358	70,000	0,000E+0
478,273	31,358	70,000	0,000E+0
480,290	31,444	70,000	0,000E+0
480,290	31,444	70,000	0,000E+0
482,310	31,474	70,000	0,000E+0
482,310	31,474	70,000	0,000E+0
484,329	31,457	70,000	0,000E+0
484,329	31,457	70,000	0,000E+0
486,346	31,353	70,000	0,000E+0
486,346	31,353	70,000	0,000E+0
488,362	31,394	70,000	0,000E+0
488,362	31,394	70,000	0,000E+0
490,381	31,424	70,000	0,000E+0
490,381	31,424	70,000	0,000E+0
492,400	31,464	70,000	0,000E+0
492,400	31,464	70,000	0,000E+0
494,418	31,491	70,000	0,000E+0
494,418	31,491	70,000	0,000E+0
496,435	31,466	70,000	0,000E+0
496,435	31,466	70,000	0,000E+0
498,454	31,538	70,000	0,000E+0
498,454	31,538	70,000	0,000E+0
500,473	31,485	70,000	0,000E+0
500,473	31,485	70,000	0,000E+0
502,493	31,361	70,000	0,000E+0
502,493	31,361	70,000	0,000E+0
504,512	31,500	70,000	0,000E+0
504,512	31,500	70,000	0,000E+0
506,530	31,538	70,000	0,000E+0
506,530	31,538	70,000	0,000E+0
508,547	31,502	70,000	0,000E+0
508,547	31,502	70,000	0,000E+0
510,566	31,469	70,000	0,000E+0
510,566	31,469	70,000	0,000E+0
512,582	31,527	70,000	0,000E+0
512,582	31,527	70,000	0,000E+0
514,601	31,480	70,000	0,000E+0
514,601	31,480	70,000	0,000E+0
516,618	31,495	70,000	0,000E+0
516,618	31,495	70,000	0,000E+0
518,638	31,492	70,000	0,000E+0
518,638	31,492	70,000	0,000E+0
520,657	31,533	70,000	0,000E+0
520,657	31,533	70,000	0,000E+0
522,676	31,579	70,000	0,000E+0
522,676	31,579	70,000	0,000E+0
524,692	31,584	70,000	0,000E+0
524,692	31,584	70,000	0,000E+0
526,711	31,584	70,000	0,000E+0
526,711	31,584	70,000	0,000E+0
528,730	31,569	70,000	0,000E+0
528,730	31,569	70,000	0,000E+0
530,746	31,657	70,000	0,000E+0
530,746	31,657	70,000	0,000E+0
532,765	31,579	70,000	0,000E+0
532,765	31,579	70,000	0,000E+0
534,782	31,493	70,000	0,000E+0
534,782	31,493	70,000	0,000E+0
536,802	31,629	70,000	0,000E+0
536,802	31,629	70,000	0,000E+0
538,819	31,735	70,000	0,000E+0
538,819	31,735	70,000	0,000E+0
540,840	31,785	70,000	0,000E+0
540,840	31,785	70,000	0,000E+0
542,856	31,816	70,000	0,000E+0
542,856	31,816	70,000	0,000E+0
544,877	31,791	70,000	0,000E+0
544,877	31,791	70,000	0,000E+0
546,896	31,766	70,000	0,000E+0
546,896	31,766	70,000	0,000E+0
548,916	31,743	70,000	0,000E+0
548,916	31,743	70,000	0,000E+0
550,933	31,783	70,000	0,000E+0
550,933	31,783	70,000	0,000E+0
552,953	31,806	70,000	0,000E+0
552,953	31,640	70,000	0,000E+0
554,938	31,640	70,000	0,000E+0
554,938	31,640	70,000	0,000E+0
556,963	31,692	70,000	0,000E+0
556,963	31,692	70,000	0,000E+0
558,983	31,766	70,000	0,000E+0
558,983	31,766	70,000	0,000E+0
561,002	31,834	70,000	0,000E+0
561,002	31,834	70,000	0,000E+0
563,021	31,940	70,000	0,000E+0
563,021	31,940	70,000	0,000E+0
565,039	31,971	70,000	0,000E+0
565,039	31,971	70,000	0,000E+0
567,058	31,907	70,000	0,000E+0
567,058	31,907	70,000	0,000E+0
569,077	31,814	70,000	0,000E+0
569,077	31,814	70,000	0,000E+0
571,093	31,887	70,000	0,000E+0
571,093	31,887	70,000	0,000E+0
573,114	31,884	70,000	0,000E+0
573,114	31,884	70,000	0,000E+0
575,131	31,864	70,000	0,000E+0
575,131	31,864	70,000	0,000E+0
577,149	31,925	70,000	0,000E+0
577,149	31,925	70,000	0,000E+0
579,168	31,927	70,000	0,000E+0
579,168	31,927	70,000	0,000E+0
579,168	31,927	70,000	0,000E+0
581,187	31,853	70,000	0,000E+0
581,187	31,853	70,000	0,000E+0
583,205	31,902	70,000	0,000E+0
583,205	31,902	70,000	0,000E+0
585,224	31,879	70,000	0,000E+0
585,224	31,879	70,000	0,000E+0
587,243	31,915	70,000	0,000E+0
587,243	31,915	70,000	0,000E+0
589,259	31,905	70,000	0,000E+0
589,259	31,905	70,000	0,000E+0
591,282	31,928	70,000	0,000E+0
591,282	31,928	70,000	0,000E+0
593,299	31,971	70,000	0,000E+0
593,299	31,971	70,000	0,000E+0
595,319	31,968	70,000	0,000E+0
595,319	31,968	70,000	0,000E+0
597,336	31,935	70,000	0,000E+0
597,336	31,935	70,000	0,000E+0
599,355	31,920	70,000	0,000E+0
599,355	31,920	70,000	0,000E+0
601,371	31,940	70,000	0,000E+0
601,371	31,940	70,000	0,000E+0
603,390	31,950	70,000	0,000E+0
603,390	31,950	70,000	0,000E+0
605,407	32,018	70,000	0,000E+0
605,407	32,018	70,000	0,000E+0
607,425	31,975	70,000	0,000E+0
607,425	31,975	70,000	0,000E+0
609,442	32,049	70,000	0,000E+0
609,442	32,049	70,000	0,000E+0
611,460	32,086	70,000	0,000E+0
611,460	32,086	70,000	0,000E+0
613,477	32,142	70,000	0,000E+0
613,477	32,142	70,000	0,000E+0
615,498	32,253	70,000	0,000E+0
615,498	32,253	70,000	0,000E+0
617,517	32,192	70,000	0,000E+0
617,517	32,192	70,000	0,000E+0
619,535	32,205	70,000	0,000E+0
619,535	32,205	70,000	0,000E+0
621,554	32,187	70,000	0,000E+0
621,554	32,187	70,000	0,000E+0
623,573	32,238	70,000	0,000E+0
623,573	32,238	70,000	0,000E+0
625,589	32,293	70,000	0,000E+0
625,589	32,293	70,000	0,000E+0
627,608	32,270	70,000	0,000E+0
627,608	32,270	70,000	0,000E+0
629,625	32,258	70,000	0,000E+0
629,625	32,258	70,000	0,000E+0
631,643	32,212	70,000	0,000E+0
631,643	32,212	70,000	0,000E+0
633,660	32,174	70,000	0,000E+0
633,660	32,174	70,000	0,000E+0
635,679	32,326	70,000	0,000E+0
635,679	32,326	70,000	0,000E+0
637,695	32,301	70,000	0,000E+0
637,695	32,301	70,000	0,000E+0
639,714	32,268	70,000	0,000E+0
639,714	32,268	70,000	0,000E+0
641,735	32,233	70,000	0,000E+0
641,735	32,233	70,000	0,000E+0
643,753	32,301	70,000	0,000E+0
643,753	32,301	70,000	0,000E+0
645,774	32,248	70,000	0,000E+0
645,774	32,248	70,000	0,000E+0
647,793	32,225	70,000	0,000E+0
647,793	32,225	70,000	0,000E+0
649,813	32,351	70,000	0,000E+0
649,813	32,351	70,000	0,000E+0
651,830	32,414	70,000	0,000E+0
651,830	32,414	70,000	0,000E+0
653,849	32,426	70,000	0,000E+0
653,849	32,426	70,000	0,000E+0
655,865	32,411	70,000	0,000E+0
655,865	32,411	70,000	0,000E+0
657,884	32,477	70,000	0,000E+0
657,884	32,477	70,000	0,000E+0
659,903	32,466	70,000	0,000E+0
659,903	32,466	70,000	0,000E+0
661,919	32,454	70,000	0,000E+0
661,919	32,454	70,000	0,000E+0
663,938	32,532	70,000	0,000E+0
663,938	32,532	70,000	0,000E+0
665,955	32,492	70,000	0,000E+0
665,955	32,492	70,000	0,000E+0
667,973	32,384	70,000	0,000E+0
667,973	32,384	70,000	0,000E+0
669,994	32,401	70,000	0,000E+0
669,994	32,401	70,000	0,000E+0
672,013	32,470	70,000	0,000E+0
672,013	32,470	70,000	0,000E+0
674,032	32,407	70,000	0,000E+0
674,032	32,407	70,000	0,000E+0
676,052	32,311	70,000	0,000E+0
676,052	32,311	70,000	0,000E+0
678,071	32,329	70,000	0,000E+0
678,071	32,329	70,000	0,000E+0
680,090	32,391	70,000	0,000E+0
680,090	32,391	70,000	0,000E+0
682,106	32,394	70,000	0,000E+0
682,106	32,394	70,000	0,000E+0
684,125	32,495	70,000	0,000E+0
684,125	32,495	70,000	0,000E+0
686,141	32,515	70,000	0,000E+0
686,141	32,515	70,000	0,000E+0
688,160	32,548	70,000	0,000E+0
688,160	32,548	70,000	0,000E+0
690,177	32,616	70,000	0,000E+0
690,177	32,616	70,000	0,000E+0
692,195	32,592	70,000	0,000E+0
692,195	32,592	70,000	0,000E+0
694,212	32,504	70,000	0,000E+0
694,212	32,504	70,000	0,000E+0
694,212	32,504	70,000	0,000E+0
696,233	32,467	70,000	0,000E+0
696,233	32,467	70,000	0,000E+0
698,249	32,552	70,000	0,000E+0
698,249	32,552	70,000	0,000E+0
700,268	32,574	70,000	0,000E+0
700,268	32,574	70,000	0,000E+0
702,284	32,575	70,000	0,000E+0
702,284	32,575	70,000	0,000E+0
704,303	32,582	70,000	0,000E+0
704,303	32,582	70,000	0,000E+0
706,320	32,645	70,000	0,000E+0
706,320	32,645	70,000	0,000E+0
708,340	32,687	70,000	0,000E+0
708,340	32,687	70,000	0,000E+0
710,357	32,584	70,000	0,000E+0
710,357	32,584	70,000	0,000E+0
712,376	32,565	70,000	0,000E+0
712,376	32,565	70,000	0,000E+0
714,392	32,578	70,000	0,000E+0
714,392	32,578	70,000	0,000E+0
716,411	32,593	70,000	0,000E+0
716,411	32,593	70,000	0,000E+0
718,428	32,636	70,000	0,000E+0
718,428	32,636	70,000	0,000E+0
720,448	32,588	70,000	0,000E+0
720,448	32,588	70,000	0,000E+0
722,465	32,600	70,000	0,000E+0
722,465	32,600	70,000	0,000E+0
724,484	32,623	70,000	0,000E+0
724,484	32,623	70,000	0,000E+0
726,502	32,676	70,000	0,000E+0
726,502	32,676	70,000	0,000E+0
728,521	32,698	70,000	0,000E+0
728,521	32,698	70,000	0,000E+0
730,539	32,694	70,000	0,000E+0
730,539	32,694	70,000	0,000E+0
732,558	32,732	70,000	0,000E+0
732,558	32,732	70,000	0,000E+0
734,577	32,822	70,000	0,000E+0
734,577	32,822	70,000	0,000E+0
736,596	32,899	70,000	0,000E+0
736,596	32,899	70,000	0,000E+0
738,614	32,925	70,000	0,000E+0
738,614	32,925	70,000	0,000E+0
740,631	32,887	70,000	0,000E+0
740,631	32,887	70,000	0,000E+0
742,649	32,894	70,000	0,000E+0
742,649	32,894	70,000	0,000E+0
744,666	32,877	70,000	0,000E+0
744,666	32,877	70,000	0,000E+0
746,685	32,865	70,000	0,000E+0
746,685	32,865	70,000	0,000E+0
748,701	32,955	70,000	0,000E+0
748,701	32,955	70,000	0,000E+0
750,720	32,905	70,000	0,000E+0
750,720	32,905	70,000	0,000E+0
752,737	32,878	70,000	0,000E+0
752,737	32,878	70,000	0,000E+0
754,755	32,848	70,000	0,000E+0
754,755	32,848	70,000	0,000E+0
756,772	32,853	70,000	0,000E+0
756,772	32,853	70,000	0,000E+0
758,793	32,913	70,000	0,000E+0
758,793	32,913	70,000	0,000E+0
760,809	32,913	70,000	0,000E+0
760,809	32,913	70,000	0,000E+0
762,828	32,913	70,000	0,000E+0
762,828	32,913	70,000	0,000E+0
764,845	32,976	70,000	0,000E+0
764,845	32,976	70,000	0,000E+0
766,864	32,915	70,000	0,000E+0
766,864	32,915	70,000	0,000E+0
768,880	32,991	70,000	0,000E+0
768,880	32,991	70,000	0,000E+0
770,899	32,956	70,000	0,000E+0
770,899	32,956	70,000	0,000E+0
772,917	32,993	70,000	0,000E+0
772,917	32,993	70,000	0,000E+0
774,936	32,966	70,000	0,000E+0
774,936	32,966	70,000	0,000E+0
776,955	32,954	70,000	0,000E+0
776,955	32,954	70,000	0,000E+0
778,971	32,948	70,000	0,000E+0
778,971	32,948	70,000	0,000E+0
780,990	32,906	70,000	0,000E+0
780,990	32,906	70,000	0,000E+0
783,011	32,928	70,000	0,000E+0
783,011	32,928	70,000	0,000E+0
785,029	33,011	70,000	0,000E+0
785,029	33,011	70,000	0,000E+0
787,046	33,089	70,000	0,000E+0
787,046	33,089	70,000	0,000E+0
789,065	33,124	70,000	0,000E+0
789,065	33,124	70,000	0,000E+0
791,083	33,041	70,000	0,000E+0
791,083	33,041	70,000	0,000E+0
793,104	33,109	70,000	0,000E+0
793,104	33,109	70,000	0,000E+0
795,121	33,175	70,000	0,000E+0
795,121	33,175	70,000	0,000E+0
797,141	33,185	70,000	0,000E+0
797,141	33,185	70,000	0,000E+0
799,160	33,117	70,000	0,000E+0
799,160	33,117	70,000	0,000E+0
801,179	33,144	70,000	0,000E+0
801,179	33,144	70,000	0,000E+0
803,197	33,180	70,000	0,000E+0
803,197	33,180	70,000	0,000E+0
805,216	33,247	70,000	0,000E+0
805,216	33,247	70,000	0,000E+0
805,216	33,247	70,000	0,000E+0
807,235	33,227	70,000	0,000E+0
809,221	33,227	70,000	0,000E+0
809,221	33,227	70,000	0,000E+0
809,221	33,227	70,000	0,000E+0
811,246	33,144	70,000	0,000E+0
811,246	33,144	70,000	0,000E+0
813,265	33,102	70,000	0,000E+0
813,265	33,102	70,000	0,000E+0
815,281	33,105	70,000	0,000E+0
815,281	33,105	70,000	0,000E+0
817,302	33,165	70,000	0,000E+0
817,302	33,165	70,000	0,000E+0
819,319	33,085	70,000	0,000E+0
819,319	33,085	70,000	0,000E+0
821,339	33,075	70,000	0,000E+0
821,339	33,075	70,000	0,000E+0
823,356	33,036	70,000	0,000E+0
823,356	33,036	70,000	0,000E+0
825,377	33,175	70,000	0,000E+0
825,377	33,175	70,000	0,000E+0
827,393	33,340	70,000	0,000E+0
827,393	33,340	70,000	0,000E+0
829,416	33,379	70,000	0,000E+0
829,416	33,379	70,000	0,000E+0
831,433	33,419	70,000	0,000E+0
831,433	33,419	70,000	0,000E+0
833,449	33,396	70,000	0,000E+0
833,449	33,396	70,000	0,000E+0
835,468	33,404	70,000	0,000E+0
835,468	33,404	70,000	0,000E+0
837,485	33,407	70,000	0,000E+0
837,485	33,407	70,000	0,000E+0
839,503	33,399	70,000	0,000E+0
839,503	33,399	70,000	0,000E+0
841,520	33,326	70,000	0,000E+0
841,520	33,326	70,000	0,000E+0
843,541	33,301	70,000	0,000E+0
843,541	33,301	70,000	0,000E+0
845,557	33,306	70,000	0,000E+0
845,557	33,306	70,000	0,000E+0
847,578	33,328	70,000	0,000E+0
847,578	33,328	70,000	0,000E+0
849,595	33,489	70,000	0,000E+0
849,595	33,489	70,000	0,000E+0
851,613	33,558	70,000	0,000E+0
851,613	33,558	70,000	0,000E+0
853,630	33,525	70,000	0,000E+0
853,630	33,525	70,000	0,000E+0
855,651	33,527	70,000	0,000E+0
855,651	33,527	70,000	0,000E+0
857,667	33,541	70,000	0,000E+0
857,667	33,541	70,000	0,000E+0
859,686	33,648	70,000	0,000E+0
859,686	33,648	70,000	0,000E+0
861,703	33,671	70,000	0,000E+0
861,703	33,671	70,000	0,000E+0
863,721	33,653	70,000	0,000E+0
863,721	33,653	70,000	0,000E+0
865,738	33,708	70,000	0,000E+0
865,738	33,708	70,000	0,000E+0
867,759	33,758	70,000	0,000E+0
867,759	33,758	70,000	0,000E+0
869,775	33,637	70,000	0,000E+0
869,775	33,637	70,000	0,000E+0
871,794	33,710	70,000	0,000E+0
871,794	33,710	70,000	0,000E+0
873,813	33,590	70,000	0,000E+0
873,813	33,590	70,000	0,000E+0
875,829	33,495	70,000	0,000E+0
875,829	33,495	70,000	0,000E+0
877,848	33,502	70,000	0,000E+0
877,848	33,502	70,000	0,000E+0
879,867	33,522	70,000	0,000E+0
879,867	33,522	70,000	0,000E+0
881,883	33,563	70,000	0,000E+0
881,883	33,563	70,000	0,000E+0
883,902	33,568	70,000	0,000E+0
883,902	33,568	70,000	0,000E+0
885,921	33,609	70,000	0,000E+0
885,921	33,609	70,000	0,000E+0
887,939	33,649	70,000	0,000E+0
887,939	33,649	70,000	0,000E+0
889,956	33,649	70,000	0,000E+0
889,956	33,649	70,000	0,000E+0
891,975	33,692	70,000	0,000E+0
891,975	33,692	70,000	0,000E+0
893,993	33,744	70,000	0,000E+0
893,993	33,744	70,000	0,000E+0
896,012	33,699	70,000	0,000E+0
896,012	33,699	70,000	0,000E+0
898,033	33,712	70,000	0,000E+0
898,033	33,712	70,000	0,000E+0
900,053	33,788	70,000	0,000E+0
900,053	33,788	70,000	0,000E+0
902,072	33,818	70,000	0,000E+0
902,072	33,818	70,000	0,000E+0
904,091	33,866	70,000	0,000E+0
904,091	33,866	70,000	0,000E+0
906,109	33,750	70,000	0,000E+0
906,109	33,750	70,000	0,000E+0
908,128	33,652	70,000	0,000E+0
908,128	33,652	70,000	0,000E+0
910,147	33,680	70,000	0,000E+0
910,147	33,680	70,000	0,000E+0
912,165	33,697	70,000	0,000E+0
912,165	33,697	70,000	0,000E+0
914,184	33,775	70,000	0,000E+0
914,184	33,775	70,000	0,000E+0
916,203	33,833	70,000	0,000E+0
916,203	33,833	70,000	0,000E+0
918,219	33,813	70,000	0,000E+0
918,219	33,813	70,000	0,000E+0
920,240	33,740	70,000	0,000E+0
920,240	33,740	70,000	0,000E+0
920,240	33,740	70,000	0,000E+0
922,259	33,765	70,000	0,000E+0
922,259	33,765	70,000	0,000E+0
924,279	33,758	70,000	0,000E+0
924,279	33,758	70,000	0,000E+0
926,296	33,921	70,000	0,000E+0
926,296	33,921	70,000	0,000E+0
928,315	33,978	70,000	0,000E+0
928,315	33,978	70,000	0,000E+0
930,332	33,991	70,000	0,000E+0
930,332	33,991	70,000	0,000E+0
932,350	33,963	70,000	0,000E+0
932,350	33,963	70,000	0,000E+0
934,369	34,066	70,000	0,000E+0
934,369	34,066	70,000	0,000E+0
936,390	34,106	70,000	0,000E+0
936,390	34,106	70,000	0,000E+0
938,408	34,174	70,000	0,000E+0
938,408	34,174	70,000	0,000E+0
940,429	34,061	70,000	0,000E+0
940,429	34,061	70,000	0,000E+0
942,446	34,052	70,000	0,000E+0
942,446	34,052	70,000	0,000E+0
944,462	34,042	70,000	0,000E+0
944,462	34,042	70,000	0,000E+0
946,481	34,067	70,000	0,000E+0
946,481	34,067	70,000	0,000E+0
948,498	34,107	70,000	0,000E+0
948,498	34,107	70,000	0,000E+0
950,518	34,079	70,000	0,000E+0
950,518	34,079	70,000	0,000E+0
952,535	34,112	70,000	0,000E+0
952,535	34,112	70,000	0,000E+0
954,556	34,195	70,000	0,000E+0
954,556	34,195	70,000	0,000E+0
956,572	34,248	70,000	0,000E+0
956,572	34,248	70,000	0,000E+0
958,591	34,278	70,000	0,000E+0
958,591	34,278	70,000	0,000E+0
960,608	34,265	70,000	0,000E+0
960,608	34,265	70,000	0,000E+0
962,626	34,218	70,000	0,000E+0
962,626	34,218	70,000	0,000E+0
964,645	34,167	70,000	0,000E+0
964,645	34,167	70,000	0,000E+0
966,666	34,208	70,000	0,000E+0
966,666	34,208	70,000	0,000E+0
968,682	34,227	70,000	0,000E+0
968,682	34,227	70,000	0,000E+0
970,701	34,225	70,000	0,000E+0
970,701	34,225	70,000	0,000E+0
972,720	34,195	70,000	0,000E+0
972,720	34,195	70,000	0,000E+0
974,738	34,182	70,000	0,000E+0
974,738	34,182	70,000	0,000E+0
976,755	34,225	70,000	0,000E+0
976,755	34,225	70,000	0,000E+0
978,771	34,160	70,000	0,000E+0
978,771	34,160	70,000	0,000E+0
980,790	34,092	70,000	0,000E+0
980,790	34,092	70,000	0,000E+0
982,809	34,170	70,000	0,000E+0
982,809	34,170	70,000	0,000E+0
984,828	34,232	70,000	0,000E+0
984,828	34,232	70,000	0,000E+0
986,846	34,225	70,000	0,000E+0
986,846	34,225	70,000	0,000E+0
988,865	34,207	70,000	0,000E+0
988,865	34,207	70,000	0,000E+0
990,881	34,217	70,000	0,000E+0
990,881	34,217	70,000	0,000E+0
992,900	34,303	70,000	0,000E+0
992,900	34,303	70,000	0,000E+0
994,919	34,391	70,000	0,000E+0
994,919	34,391	70,000	0,000E+0
996,937	34,393	70,000	0,000E+0
996,937	34,393	70,000	0,000E+0
998,956	34,353	70,000	0,000E+0
998,956	34,353	70,000	0,000E+0
1000,975	34,260	70,000	0,000E+0
1000,975	34,260	70,000	0,000E+0
1002,996	34,245	70,000	0,000E+0
1002,996	34,245	70,000	0,000E+0
1005,014	34,313	70,000	0,000E+0
1005,014	34,313	70,000	0,000E+0
1007,031	34,366	70,000	0,000E+0
1007,031	34,366	70,000	0,000E+0
1009,049	34,371	70,000	0,000E+0
1009,049	34,371	70,000	0,000E+0
1011,066	34,293	70,000	0,000E+0
1011,066	34,293	70,000	0,000E+0
1013,083	34,285	70,000	0,000E+0
1013,083	34,285	70,000	0,000E+0
1015,101	34,392	70,000	0,000E+0
1015,101	34,392	70,000	0,000E+0
1017,118	34,417	70,000	0,000E+0
1017,118	34,417	70,000	0,000E+0
1019,137	34,417	70,000	0,000E+0
1019,137	34,417	70,000	0,000E+0
1021,155	34,467	70,000	0,000E+0
1021,155	34,467	70,000	0,000E+0
1023,172	34,462	70,000	0,000E+0
1023,172	34,462	70,000	0,000E+0
1025,191	34,467	70,000	0,000E+0
1025,191	34,467	70,000	0,000E+0
1027,210	34,479	70,000	0,000E+0
1027,210	34,479	70,000	0,000E+0
1029,228	34,495	70,000	0,000E+0
1029,228	34,495	70,000	0,000E+0
1031,247	34,439	70,000	0,000E+0
1031,247	34,439	70,000	0,000E+0
1033,266	34,519	70,000	0,000E+0
1033,266	34,519	70,000	0,000E+0
1035,284	34,607	70,000	0,000E+0
1035,284	34,607	70,000	0,000E+0
1035,284	34,607	70,000	0,000E+0
1037,301	34,686	70,000	0,000E+0
1037,301	34,686	70,000	0,000E+0
1039,319	34,743	70,000	0,000E+0
1039,319	34,743	70,000	0,000E+0
1041,338	34,809	70,000	0,000E+0
1041,338	34,809	70,000	0,000E+0
1043,357	34,817	70,000	0,000E+0
1043,357	34,817	70,000	0,000E+0
1045,374	34,776	70,000	0,000E+0
1045,374	34,776	70,000	0,000E+0
1047,392	34,822	70,000	0,000E+0
1047,392	34,822	70,000	0,000E+0
1049,411	34,706	70,000	0,000E+0
1049,411	34,706	70,000	0,000E+0
1051,430	34,658	70,000	0,000E+0
1051,430	34,658	70,000	0,000E+0
1053,446	34,814	70,000	0,000E+0
1053,446	34,814	70,000	0,000E+0
1055,463	34,885	70,000	0,000E+0
1055,463	34,885	70,000	0,000E+0
1057,482	34,787	70,000	0,000E+0
1057,482	34,787	70,000	0,000E+0
1059,498	34,958	70,000	0,000E+0
1059,498	34,958	70,000	0,000E+0
1061,517	35,011	70,000	0,000E+0
1061,517	35,011	70,000	0,000E+0
1063,536	34,939	70,000	0,000E+0
1063,536	34,939	70,000	0,000E+0
1065,559	34,831	70,000	0,000E+0
1065,559	34,831	70,000	0,000E+0
1067,575	34,737	70,000	0,000E+0
1067,575	34,737	70,000	0,000E+0
1069,594	34,710	70,000	0,000E+0
1069,594	34,710	70,000	0,000E+0
1071,610	34,732	70,000	0,000E+0
1071,610	34,732	70,000	0,000E+0
1073,631	34,808	70,000	0,000E+0
1073,631	34,808	70,000	0,000E+0
1075,650	35,003	70,000	0,000E+0
1075,650	35,003	70,000	0,000E+0
1077,668	35,078	70,000	0,000E+0
1077,668	35,078	70,000	0,000E+0
1079,689	35,061	70,000	0,000E+0
1079,689	35,061	70,000	0,000E+0
1081,710	34,960	70,000	0,000E+0
1081,710	34,960	70,000	0,000E+0
1083,726	34,875	70,000	0,000E+0
1083,726	34,875	70,000	0,000E+0
1085,747	34,934	70,000	0,000E+0
1085,747	34,934	70,000	0,000E+0
1087,766	34,919	70,000	0,000E+0
1087,766	34,919	70,000	0,000E+0
1089,784	34,969	70,000	0,000E+0
1089,784	34,969	70,000	0,000E+0
1091,803	34,991	70,000	0,000E+0
1091,803	34,991	70,000	0,000E+0
1093,822	34,969	70,000	0,000E+0
1093,822	34,969	70,000	0,000E+0
1095,843	34,936	70,000	0,000E+0
1095,843	34,936	70,000	0,000E+0
1097,861	34,971	70,000	0,000E+0
1097,861	34,971	70,000	0,000E+0
1099,880	34,936	70,000	0,000E+0
1099,880	34,936	70,000	0,000E+0
1101,897	34,949	70,000	0,000E+0
1101,897	34,949	70,000	0,000E+0
1103,915	34,921	70,000	0,000E+0
1103,915	34,921	70,000	0,000E+0
1105,932	34,989	70,000	0,000E+0
1105,932	34,989	70,000	0,000E+0
1107,949	35,084	70,000	0,000E+0
1107,949	35,084	70,000	0,000E+0
1109,969	35,109	70,000	0,000E+0
1109,969	35,109	70,000	0,000E+0
1111,986	35,132	70,000	0,000E+0
1111,986	35,132	70,000	0,000E+0
1114,007	35,106	70,000	0,000E+0
1114,007	35,106	70,000	0,000E+0
1116,023	35,099	70,000	0,000E+0
1116,023	35,099	70,000	0,000E+0
1118,042	35,142	70,000	0,000E+0
1118,042	35,142	70,000	0,000E+0
1120,059	35,240	70,000	0,000E+0
1120,059	35,240	70,000	0,000E+0
1122,077	35,366	70,000	0,000E+0
1122,077	35,366	70,000	0,000E+0
1124,096	35,328	70,000	0,000E+0
1124,096	35,328	70,000	0,000E+0
1126,115	35,225	70,000	0,000E+0
1126,115	35,225	70,000	0,000E+0
1128,131	35,305	70,000	0,000E+0
1128,131	35,305	70,000	0,000E+0
1130,150	35,321	70,000	0,000E+0
1130,150	35,321	70,000	0,000E+0
1132,167	35,298	70,000	0,000E+0
1132,167	35,298	70,000	0,000E+0
1134,186	35,242	70,000	0,000E+0
1134,186	35,242	70,000	0,000E+0
1136,204	35,180	70,000	0,000E+0
1136,204	35,180	70,000	0,000E+0
1138,221	35,200	70,000	0,000E+0
1138,221	35,200	70,000	0,000E+0
1140,240	35,137	70,000	0,000E+0
1140,240	35,137	70,000	0,000E+0
1142,258	35,104	70,000	0,000E+0
1142,258	35,104	70,000	0,000E+0
1144,277	35,187	70,000	0,000E+0
1144,277	35,187	70,000	0,000E+0
1146,294	35,250	70,000	0,000E+0
1146,294	35,250	70,000	0,000E+0
1148,312	35,305	70,000	0,000E+0
1148,312	35,305	70,000	0,000E+0
1150,329	35,398	70,000	0,000E+0
1150,329	35,398	70,000	0,000E+0
1150,329	35,398	70,000	0,000E+0
1152,348	35,394	70,000	0,000E+0
1152,348	35,394	70,000	0,000E+0
1154,364	35,436	70,000	0,000E+0
1154,364	35,436	70,000	0,000E+0
1156,385	35,431	70,000	0,000E+0
1156,385	35,431	70,000	0,000E+0
1158,402	35,434	70,000	0,000E+0
1158,402	35,434	70,000	0,000E+0
1160,420	35,431	70,000	0,000E+0
1160,420	35,431	70,000	0,000E+0
1162,439	35,537	70,000	0,000E+0
1162,439	35,537	70,000	0,000E+0
1164,460	35,574	70,000	0,000E+0
1164,460	35,574	70,000	0,000E+0
1166,477	35,595	70,000	0,000E+0
1166,477	35,595	70,000	0,000E+0
1168,499	35,484	70,000	0,000E+0
1168,499	35,484	70,000	0,000E+0
1170,516	35,498	70,000	0,000E+0
1170,516	35,498	70,000	0,000E+0
1172,535	35,458	70,000	0,000E+0
1172,535	35,458	70,000	0,000E+0
1174,555	35,386	70,000	0,000E+0
1174,555	35,386	70,000	0,000E+0
1176,574	35,501	70,000	0,000E+0
1176,574	35,501	70,000	0,000E+0
1178,593	35,515	70,000	0,000E+0
1178,593	35,515	70,000	0,000E+0
1180,610	35,577	70,000	0,000E+0
1180,610	35,577	70,000	0,000E+0
1182,628	35,561	70,000	0,000E+0
1182,628	35,561	70,000	0,000E+0
1184,645	35,567	70,000	0,000E+0
1184,645	35,567	70,000	0,000E+0
1186,664	35,522	70,000	0,000E+0
1186,664	35,522	70,000	0,000E+0
1188,680	35,628	70,000	0,000E+0
1188,680	35,628	70,000	0,000E+0
1190,699	35,650	70,000	0,000E+0
1190,699	35,650	70,000	0,000E+0
1192,716	35,743	70,000	0,000E+0
1192,716	35,743	70,000	0,000E+0
1194,737	35,795	70,000	0,000E+0
1194,737	35,795	70,000	0,000E+0
1196,755	35,768	70,000	0,000E+0
1196,755	35,768	70,000	0,000E+0
1198,772	35,717	70,000	0,000E+0
1198,772	35,717	70,000	0,000E+0
1200,791	35,773	70,000	0,000E+0
1200,791	35,773	70,000	0,000E+0
1202,807	35,755	70,000	0,000E+0
1202,807	35,755	70,000	0,000E+0
1204,826	35,735	70,000	0,000E+0
1204,826	35,735	70,000	0,000E+0
1206,842	35,587	70,000	0,000E+0
1206,842	35,587	70,000	0,000E+0
1208,861	35,589	70,000	0,000E+0
1208,861	35,589	70,000	0,000E+0
1210,877	35,697	70,000	0,000E+0
1210,877	35,697	70,000	0,000E+0
1212,896	35,774	70,000	0,000E+0
1212,896	35,774	70,000	0,000E+0
1214,913	35,821	70,000	0,000E+0
1214,913	35,821	70,000	0,000E+0
1216,931	35,878	70,000	0,000E+0
1216,931	35,878	70,000	0,000E+0
1218,950	35,795	70,000	0,000E+0
1218,950	35,795	70,000	0,000E+0
1220,966	35,796	70,000	0,000E+0
1220,966	35,796	70,000	0,000E+0
1222,989	35,844	70,000	0,000E+0
1222,989	35,844	70,000	0,000E+0
1225,006	35,869	70,000	0,000E+0
1225,006	35,869	70,000	0,000E+0
1227,024	35,876	70,000	0,000E+0
1227,024	35,876	70,000	0,000E+0
1229,041	35,891	70,000	0,000E+0
1229,041	35,891	70,000	0,000E+0
1231,060	35,846	70,000	0,000E+0
1231,060	35,846	70,000	0,000E+0
1233,074	35,836	70,000	0,000E+0
1233,074	35,836	70,000	0,000E+0
1235,093	35,872	70,000	0,000E+0
1235,093	35,872	70,000	0,000E+0
1237,109	35,914	70,000	0,000E+0
1237,109	35,914	70,000	0,000E+0
1239,128	35,876	70,000	0,000E+0
1239,128	35,876	70,000	0,000E+0
1241,146	35,970	70,000	0,000E+0
1241,146	35,970	70,000	0,000E+0
1243,165	36,045	70,000	0,000E+0
1243,165	36,045	70,000	0,000E+0
1245,182	35,995	70,000	0,000E+0
1245,182	35,995	70,000	0,000E+0
1247,200	35,875	70,000	0,000E+0
1247,200	35,875	70,000	0,000E+0
1249,217	35,968	70,000	0,000E+0
1249,217	35,968	70,000	0,000E+0
1251,235	36,050	70,000	0,000E+0
1251,235	36,050	70,000	0,000E+0
1253,254	36,040	70,000	0,000E+0
1253,254	36,040	70,000	0,000E+0
1255,273	35,997	70,000	0,000E+0
1255,273	35,997	70,000	0,000E+0
1257,289	35,992	70,000	0,000E+0
1257,289	35,992	70,000	0,000E+0
1259,308	36,005	70,000	0,000E+0
1259,308	36,005	70,000	0,000E+0
1261,324	36,025	70,000	0,000E+0
1261,324	36,025	70,000	0,000E+0
1263,343	36,050	70,000	0,000E+0
1263,343	36,050	70,000	0,000E+0
1265,360	35,917	70,000	0,000E+0
1265,360	35,917	70,000	0,000E+0
1265,360	35,917	70,000	0,000E+0
1267,378	35,837	70,000	0,000E+0
1267,378	35,837	70,000	0,000E+0
1269,397	35,809	70,000	0,000E+0
1269,397	35,809	70,000	0,000E+0
1271,417	35,877	70,000	0,000E+0
1271,417	35,877	70,000	0,000E+0
1273,436	35,955	70,000	0,000E+0
1273,436	35,955	70,000	0,000E+0
1275,455	35,947	70,000	0,000E+0
1275,455	35,947	70,000	0,000E+0
1277,471	35,897	70,000	0,000E+0
1277,471	35,897	70,000	0,000E+0
1279,490	35,937	70,000	0,000E+0
1279,490	35,937	70,000	0,000E+0
1281,506	35,942	70,000	0,000E+0
1281,506	35,942	70,000	0,000E+0
1283,525	35,908	70,000	0,000E+0
1283,525	35,908	70,000	0,000E+0
1285,542	35,903	70,000	0,000E+0
1285,542	35,903	70,000	0,000E+0
1287,560	35,883	70,000	0,000E+0
1287,560	35,883	70,000	0,000E+0
1289,579	36,033	70,000	0,000E+0
1289,579	36,033	70,000	0,000E+0
1291,597	36,146	70,000	0,000E+0
1291,597	36,146	70,000	0,000E+0
1293,616	36,139	70,000	0,000E+0
1293,616	36,139	70,000	0,000E+0
1295,635	36,114	70,000	0,000E+0
1295,635	36,114	70,000	0,000E+0
1297,653	36,121	70,000	0,000E+0
1297,653	36,121	70,000	0,000E+0
1299,672	36,169	70,000	0,000E+0
1299,672	36,169	70,000	0,000E+0
1301,689	36,217	70,000	0,000E+0
1301,689	36,217	70,000	0,000E+0
1303,707	36,277	70,000	0,000E+0
1303,707	36,277	70,000	0,000E+0
1305,724	36,366	70,000	0,000E+0
1305,724	36,366	70,000	0,000E+0
1307,742	36,216	70,000	0,000E+0
1307,742	36,216	70,000	0,000E+0
1309,759	36,181	70,000	0,000E+0
1309,759	36,181	70,000	0,000E+0
1311,778	36,226	70,000	0,000E+0
1311,778	36,226	70,000	0,000E+0
1313,794	36,233	70,000	0,000E+0
1313,794	36,233	70,000	0,000E+0
1315,813	36,091	70,000	0,000E+0
1315,813	36,091	70,000	0,000E+0
1317,830	36,126	70,000	0,000E+0
1317,830	36,126	70,000	0,000E+0
1319,848	36,302	70,000	0,000E+0
1319,848	36,302	70,000	0,000E+0
1321,865	36,254	70,000	0,000E+0
1321,865	36,254	70,000	0,000E+0
1323,884	36,246	70,000	0,000E+0
1323,884	36,246	70,000	0,000E+0
1325,900	36,256	70,000	0,000E+0
1325,900	36,256	70,000	0,000E+0
1327,919	36,309	70,000	0,000E+0
1327,919	36,309	70,000	0,000E+0
1329,937	36,359	70,000	0,000E+0
1329,937	36,359	70,000	0,000E+0
1331,956	36,566	70,000	0,000E+0
1331,956	36,566	70,000	0,000E+0
1333,973	36,465	70,000	0,000E+0
1333,973	36,465	70,000	0,000E+0
1335,993	36,377	70,000	0,000E+0
1335,993	36,377	70,000	0,000E+0
1338,010	36,488	70,000	0,000E+0
1338,010	36,488	70,000	0,000E+0
1340,030	36,578	70,000	0,000E+0
1340,030	36,578	70,000	0,000E+0
1342,047	36,570	70,000	0,000E+0
1342,047	36,570	70,000	0,000E+0
1344,068	36,653	70,000	0,000E+0
1344,068	36,653	70,000	0,000E+0
1346,084	36,659	70,000	0,000E+0
1346,084	36,659	70,000	0,000E+0
1348,105	36,603	70,000	0,000E+0
1348,105	36,603	70,000	0,000E+0
1350,123	36,478	70,000	0,000E+0
1350,123	36,478	70,000	0,000E+0
1352,144	36,485	70,000	0,000E+0
1352,144	36,485	70,000	0,000E+0
1354,161	36,448	70,000	0,000E+0
1354,161	36,448	70,000	0,000E+0
1356,181	36,498	70,000	0,000E+0
1356,181	36,498	70,000	0,000E+0
1358,200	36,505	70,000	0,000E+0
1358,200	36,505	70,000	0,000E+0
1360,220	36,522	70,000	0,000E+0
1360,220	36,522	70,000	0,000E+0
1362,237	36,613	70,000	0,000E+0
1362,237	36,613	70,000	0,000E+0
1364,256	36,538	70,000	0,000E+0
1364,256	36,538	70,000	0,000E+0
1366,272	36,517	70,000	0,000E+0
1366,272	36,517	70,000	0,000E+0
1368,291	36,621	70,000	0,000E+0
1368,291	36,621	70,000	0,000E+0
1370,307	36,672	70,000	0,000E+0
1370,307	36,672	70,000	0,000E+0
1372,326	36,684	70,000	0,000E+0
1372,326	36,684	70,000	0,000E+0
1374,343	36,677	70,000	0,000E+0
1374,343	36,677	70,000	0,000E+0
1376,363	36,632	70,000	0,000E+0
1376,363	36,632	70,000	0,000E+0
1378,380	36,599	70,000	0,000E+0
1378,380	36,599	70,000	0,000E+0
1378,380	36,599	70,000	0,000E+0
1380,401	36,699	70,000	0,000E+0
1380,401	36,699	70,000	0,000E+0
1382,417	36,717	70,000	0,000E+0
1382,417	36,717	70,000	0,000E+0
1384,438	36,654	70,000	0,000E+0
1384,438	36,654	70,000	0,000E+0
1386,454	36,707	70,000	0,000E+0
1386,454	36,707	70,000	0,000E+0
1388,473	36,689	70,000	0,000E+0
1388,473	36,689	70,000	0,000E+0
1390,490	36,646	70,000	0,000E+0
1390,490	36,646	70,000	0,000E+0
1392,508	36,807	70,000	0,000E+0
1392,508	36,807	70,000	0,000E+0
1394,527	36,921	70,000	0,000E+0
1394,527	36,921	70,000	0,000E+0
1396,546	36,989	70,000	0,000E+0
1396,546	36,989	70,000	0,000E+0
1398,562	36,866	70,000	0,000E+0
1398,562	36,866	70,000	0,000E+0
1400,583	36,888	70,000	0,000E+0
1400,583	36,888	70,000	0,000E+0
1402,602	36,890	70,000	0,000E+0
1402,602	36,890	70,000	0,000E+0
1404,620	36,826	70,000	0,000E+0
1404,620	36,826	70,000	0,000E+0
1406,637	36,826	70,000	0,000E+0
1406,637	36,826	70,000	0,000E+0
1408,655	36,858	70,000	0,000E+0
1408,655	36,858	70,000	0,000E+0
1410,672	36,828	70,000	0,000E+0
1410,672	36,828	70,000	0,000E+0
1412,691	36,856	70,000	0,000E+0
1412,691	36,856	70,000	0,000E+0
1414,707	36,847	70,000	0,000E+0
1414,707	36,847	70,000	0,000E+0
1416,726	36,888	70,000	0,000E+0
1416,726	36,888	70,000	0,000E+0
1418,745	36,967	70,000	0,000E+0
1418,745	36,967	70,000	0,000E+0
1420,763	36,937	70,000	0,000E+0
1420,763	36,937	70,000	0,000E+0
1422,782	37,043	70,000	0,000E+0
1422,782	37,043	70,000	0,000E+0
1424,801	37,041	70,000	0,000E+0
1424,801	37,041	70,000	0,000E+0
1426,819	37,063	70,000	0,000E+0
1426,819	37,063	70,000	0,000E+0
1428,840	37,098	70,000	0,000E+0
1428,840	37,098	70,000	0,000E+0
1430,859	37,055	70,000	0,000E+0
1430,859	37,055	70,000	0,000E+0
1432,877	37,145	70,000	0,000E+0
1432,877	37,145	70,000	0,000E+0
1434,896	37,107	70,000	0,000E+0
1434,896	37,107	70,000	0,000E+0
1436,914	37,110	70,000	0,000E+0
1436,914	37,110	70,000	0,000E+0
1438,933	37,040	70,000	0,000E+0
1438,933	37,040	70,000	0,000E+0
1440,950	36,987	70,000	0,000E+0
1440,950	36,987	70,000	0,000E+0
1442,970	37,063	70,000	0,000E+0
1442,970	37,063	70,000	0,000E+0
1444,987	37,223	70,000	0,000E+0
1444,987	37,223	70,000	0,000E+0
1447,006	37,266	70,000	0,000E+0
1447,006	37,266	70,000	0,000E+0
1449,024	37,381	70,000	0,000E+0
1449,024	37,381	70,000	0,000E+0
1451,043	37,369	70,000	0,000E+0
1451,043	37,369	70,000	0,000E+0
1453,060	37,329	70,000	0,000E+0
1453,060	37,329	70,000	0,000E+0
1455,080	37,361	70,000	0,000E+0
1455,080	37,361	70,000	0,000E+0
1457,099	37,399	70,000	0,000E+0
1457,099	37,399	70,000	0,000E+0
1459,118	37,311	70,000	0,000E+0
1459,118	37,311	70,000	0,000E+0
1461,134	37,266	70,000	0,000E+0
1461,134	37,266	70,000	0,000E+0
1463,153	37,314	70,000	0,000E+0
1463,153	37,314	70,000	0,000E+0
1465,170	37,334	70,000	0,000E+0
1465,170	37,334	70,000	0,000E+0
1467,188	37,415	70,000	0,000E+0
1467,188	37,415	70,000	0,000E+0
1469,205	37,464	70,000	0,000E+0
1469,205	37,464	70,000	0,000E+0
1471,223	37,400	70,000	0,000E+0
1471,223	37,400	70,000	0,000E+0
1473,244	37,374	70,000	0,000E+0
1473,244	37,374	70,000	0,000E+0
1475,262	37,367	70,000	0,000E+0
1475,262	37,367	70,000	0,000E+0
1477,279	37,324	70,000	0,000E+0
1477,279	37,324	70,000	0,000E+0
1479,298	37,404	70,000	0,000E+0
1479,298	37,404	70,000	0,000E+0
1481,316	37,419	70,000	0,000E+0
1481,316	37,419	70,000	0,000E+0
1483,335	37,389	70,000	0,000E+0
1483,335	37,389	70,000	0,000E+0
1485,352	37,407	70,000	0,000E+0
1485,352	37,407	70,000	0,000E+0
1487,372	37,392	70,000	0,000E+0
1487,372	37,392	70,000	0,000E+0
1489,389	37,392	70,000	0,000E+0
1489,389	37,392	70,000	0,000E+0
1489,389	37,392	70,000	0,000E+0
1491,407	37,435	70,000	0,000E+0
1491,407	37,435	70,000	0,000E+0
1493,426	37,520	70,000	0,000E+0
1493,426	37,520	70,000	0,000E+0
1495,445	37,462	70,000	0,000E+0
1495,445	37,462	70,000	0,000E+0
1497,463	37,549	70,000	0,000E+0
1497,463	37,549	70,000	0,000E+0
1499,482	37,574	70,000	0,000E+0
1499,482	37,574	70,000	0,000E+0
1501,498	37,594	70,000	0,000E+0
1501,498	37,594	70,000	0,000E+0
1503,517	37,549	70,000	0,000E+0
1503,517	37,549	70,000	0,000E+0
1505,536	37,557	70,000	0,000E+0
1505,536	37,557	70,000	0,000E+0
1507,554	37,506	70,000	0,000E+0
1507,554	37,506	70,000	0,000E+0
1509,571	37,494	70,000	0,000E+0
1509,571	37,494	70,000	0,000E+0
1511,590	37,499	70,000	0,000E+0
1511,590	37,499	70,000	0,000E+0
1513,608	37,491	70,000	0,000E+0
1513,608	37,491	70,000	0,000E+0
1515,627	37,559	70,000	0,000E+0
1515,627	37,559	70,000	0,000E+0
1517,646	37,617	70,000	0,000E+0
1517,646	37,617	70,000	0,000E+0
1519,664	37,624	70,000	0,000E+0
1519,664	37,624	70,000	0,000E+0
1521,653	37,624	70,000	0,000E+0
1521,653	37,624	70,000	0,000E+0
1523,677	37,675	70,000	0,000E+0
1523,677	37,675	70,000	0,000E+0
1525,696	37,632	70,000	0,000E+0
1525,696	37,632	70,000	0,000E+0
1527,715	37,741	70,000	0,000E+0
1527,715	37,741	70,000	0,000E+0
1529,733	37,817	70,000	0,000E+0
1529,733	37,817	70,000	0,000E+0
1531,752	37,851	70,000	0,000E+0
1531,752	37,851	70,000	0,000E+0
1533,771	37,965	70,000	0,000E+0
1533,771	37,965	70,000	0,000E+0
1535,789	37,813	70,000	0,000E+0
1535,789	37,813	70,000	0,000E+0
1537,806	37,823	70,000	0,000E+0
1537,806	37,823	70,000	0,000E+0
1539,824	37,831	70,000	0,000E+0
1539,824	37,831	70,000	0,000E+0
1541,841	37,838	70,000	0,000E+0
1541,841	37,838	70,000	0,000E+0
1543,862	37,900	70,000	0,000E+0
1543,862	37,900	70,000	0,000E+0
1545,880	37,912	70,000	0,000E+0
1545,880	37,912	70,000	0,000E+0
1547,897	38,020	70,000	0,000E+0
1547,897	38,020	70,000	0,000E+0
1549,916	38,007	70,000	0,000E+0
1549,916	38,007	70,000	0,000E+0
1551,932	37,964	70,000	0,000E+0
1551,932	37,964	70,000	0,000E+0
1553,949	37,960	70,000	0,000E+0
1553,949	37,960	70,000	0,000E+0
1555,968	37,980	70,000	0,000E+0
1555,968	37,980	70,000	0,000E+0
1557,986	38,003	70,000	0,000E+0
1557,986	38,003	70,000	0,000E+0
1560,005	38,068	70,000	0,000E+0
1560,005	38,068	70,000	0,000E+0
1562,024	38,191	70,000	0,000E+0
1562,024	38,191	70,000	0,000E+0
1564,042	38,103	70,000	0,000E+0
1564,042	38,103	70,000	0,000E+0
1566,061	38,153	70,000	0,000E+0
1566,061	38,153	70,000	0,000E+0
1568,080	38,113	70,000	0,000E+0
1568,080	38,113	70,000	0,000E+0
1570,096	37,968	70,000	0,000E+0
1570,096	37,968	70,000	0,000E+0
1572,115	38,001	70,000	0,000E+0
1572,115	38,001	70,000	0,000E+0
1574,133	38,138	70,000	0,000E+0
1574,133	38,138	70,000	0,000E+0
1576,152	38,060	70,000	0,000E+0
1576,152	38,060	70,000	0,000E+0
1578,171	38,088	70,000	0,000E+0
1578,171	38,088	70,000	0,000E+0
1580,189	38,143	70,000	0,000E+0
1580,189	38,143	70,000	0,000E+0
1582,206	38,176	70,000	0,000E+0
1582,206	38,176	70,000	0,000E+0
1584,225	38,106	70,000	0,000E+0
1584,225	38,106	70,000	0,000E+0
1586,243	38,106	70,000	0,000E+0
1586,243	38,106	70,000	0,000E+0
1588,264	38,073	70,000	0,000E+0
1588,264	38,073	70,000	0,000E+0
1590,283	38,096	70,000	0,000E+0
1590,283	38,096	70,000	0,000E+0
1592,299	38,179	70,000	0,000E+0
1592,299	38,179	70,000	0,000E+0
1594,320	38,080	70,000	0,000E+0
1594,320	38,080	70,000	0,000E+0
1596,339	38,033	70,000	0,000E+0
1596,339	38,033	70,000	0,000E+0
1598,355	37,995	70,000	0,000E+0
1598,355	37,995	70,000	0,000E+0
1600,374	38,045	70,000	0,000E+0
1600,374	38,045	70,000	0,000E+0
1602,390	38,133	70,000	0,000E+0
1602,390	38,133	70,000	0,000E+0
1604,409	38,244	70,000	0,000E+0
1604,409	38,244	70,000	0,000E+0
1606,428	38,234	70,000	0,000E+0
1606,428	38,234	70,000	0,000E+0
1606,428	38,234	70,000	0,000E+0
1608,446	38,295	70,000	0,000E+0
1608,446	38,295	70,000	0,000E+0
1610,465	38,249	70,000	0,000E+0
1610,465	38,249	70,000	0,000E+0
1612,484	38,192	70,000	0,000E+0
1612,484	38,192	70,000	0,000E+0
1614,502	38,297	70,000	0,000E+0
1614,502	38,297	70,000	0,000E+0
1616,521	38,227	70,000	0,000E+0
1616,521	38,227	70,000	0,000E+0
1618,540	38,314	70,000	0,000E+0
1618,540	38,314	70,000	0,000E+0
1620,556	38,347	70,000	0,000E+0
1620,556	38,347	70,000	0,000E+0
1622,577	38,454	70,000	0,000E+0
1622,577	38,454	70,000	0,000E+0
1624,593	38,454	70,000	0,000E+0
1624,593	38,454	70,000	0,000E+0
1626,612	38,447	70,000	0,000E+0
1626,612	38,447	70,000	0,000E+0
1628,629	38,492	70,000	0,000E+0
1628,629	38,492	70,000	0,000E+0
1630,648	38,457	70,000	0,000E+0
1630,648	38,457	70,000	0,000E+0
1632,666	38,422	70,000	0,000E+0
1632,666	38,422	70,000	0,000E+0
1634,683	38,632	70,000	0,000E+0
1634,683	38,632	70,000	0,000E+0
1636,699	38,677	70,000	0,000E+0
1636,699	38,677	70,000	0,000E+0
1638,718	38,525	70,000	0,000E+0
1638,718	38,525	70,000	0,000E+0
1640,735	38,450	70,000	0,000E+0
1640,735	38,450	70,000	0,000E+0
1642,753	38,580	70,000	0,000E+0
1642,753	38,580	70,000	0,000E+0
1644,770	38,510	70,000	0,000E+0
1644,770	38,510	70,000	0,000E+0
1646,789	38,487	70,000	0,000E+0
1646,789	38,487	70,000	0,000E+0
1648,805	38,532	70,000	0,000E+0
1648,805	38,532	70,000	0,000E+0
1650,824	38,675	70,000	0,000E+0
1650,824	38,675	70,000	0,000E+0
1652,841	38,705	70,000	0,000E+0
1652,841	38,705	70,000	0,000E+0
1654,859	38,720	70,000	0,000E+0
1654,859	38,720	70,000	0,000E+0
1656,876	38,650	70,000	0,000E+0
1656,876	38,650	70,000	0,000E+0
1658,895	38,615	70,000	0,000E+0
1658,895	38,615	70,000	0,000E+0
1660,913	38,615	70,000	0,000E+0
1660,913	38,615	70,000	0,000E+0
1662,932	38,595	70,000	0,000E+0
1662,932	38,595	70,000	0,000E+0
1664,951	38,767	70,000	0,000E+0
1664,951	38,767	70,000	0,000E+0
1666,969	38,772	70,000	0,000E+0
1666,969	38,772	70,000	0,000E+0
1668,988	38,820	70,000	0,000E+0
1668,988	38,820	70,000	0,000E+0
1671,006	38,822	70,000	0,000E+0
1671,006	38,822	70,000	0,000E+0
1673,023	38,882	70,000	0,000E+0
1673,023	38,882	70,000	0,000E+0
1675,042	39,005	70,000	0,000E+0
1675,042	39,005	70,000	0,000E+0
1677,058	39,012	70,000	0,000E+0
1677,058	39,012	70,000	0,000E+0
1679,077	38,975	70,000	0,000E+0
1679,077	38,975	70,000	0,000E+0
1681,094	38,967	70,000	0,000E+0
1681,094	38,967	70,000	0,000E+0
1683,112	38,907	70,000	0,000E+0
1683,112	38,907	70,000	0,000E+0
1685,131	38,967	70,000	0,000E+0
1685,131	38,967	70,000	0,000E+0
1687,148	39,010	70,000	0,000E+0
1687,148	39,010	70,000	0,000E+0
1689,166	39,078	70,000	0,000E+0
1689,166	39,078	70,000	0,000E+0
1691,183	39,110	70,000	0,000E+0
1691,183	39,110	70,000	0,000E+0
1693,202	39,065	70,000	0,000E+0
1693,202	39,065	70,000	0,000E+0
1695,218	39,013	70,000	0,000E+0
1695,218	39,013	70,000	0,000E+0
1697,239	38,995	70,000	0,000E+0
1697,239	38,995	70,000	0,000E+0
1699,256	39,015	70,000	0,000E+0
1699,256	39,015	70,000	0,000E+0
1701,276	38,978	70,000	0,000E+0
1701,276	38,978	70,000	0,000E+0
1703,293	38,916	70,000	0,000E+0
1703,293	38,916	70,000	0,000E+0
1705,312	39,050	70,000	0,000E+0
1705,312	39,050	70,000	0,000E+0
1707,328	39,113	70,000	0,000E+0
1707,328	39,113	70,000	0,000E+0
1709,349	39,018	70,000	0,000E+0
1709,349	39,018	70,000	0,000E+0
1711,368	38,997	70,000	0,000E+0
1711,368	38,997	70,000	0,000E+0
1713,388	39,005	70,000	0,000E+0
1713,388	39,005	70,000	0,000E+0
1715,405	39,057	70,000	0,000E+0
1715,405	39,057	70,000	0,000E+0
1717,424	39,105	70,000	0,000E+0
1717,424	39,105	70,000	0,000E+0
1719,442	39,191	70,000	0,000E+0
1719,442	39,191	70,000	0,000E+0
1721,461	39,196	70,000	0,000E+0
1721,461	39,196	70,000	0,000E+0
1723,482	39,161	70,000	0,000E+0
1723,482	39,161	70,000	0,000E+0
1725,498	39,194	70,000	0,000E+0
1725,498	39,194	70,000	0,000E+0
1725,498	39,194	70,000	0,000E+0
1727,517	39,149	70,000	0,000E+0
1727,517	39,149	70,000	0,000E+0
1729,534	39,163	70,000	0,000E+0
1729,534	39,163	70,000	0,000E+0
1731,552	39,308	70,000	0,000E+0
1731,552	39,308	70,000	0,000E+0
1733,569	39,348	70,000	0,000E+0
1733,569	39,348	70,000	0,000E+0
1735,587	39,338	70,000	0,000E+0
1735,587	39,338	70,000	0,000E+0
1737,606	39,240	70,000	0,000E+0
1737,606	39,240	70,000	0,000E+0
1739,625	39,248	70,000	0,000E+0
1739,625	39,248	70,000	0,000E+0
1741,643	39,273	70,000	0,000E+0
1741,643	39,273	70,000	0,000E+0
1743,664	39,123	70,000	0,000E+0
1743,664	39,123	70,000	0,000E+0
1745,682	39,053	70,000	0,000E+0
1745,682	39,053	70,000	0,000E+0
1747,701	39,078	70,000	0,000E+0
1747,701	39,078	70,000	0,000E+0
1749,720	39,103	70,000	0,000E+0
1749,720	39,103	70,000	0,000E+0
1751,738	39,174	70,000	0,000E+0
1751,738	39,174	70,000	0,000E+0
1753,757	39,168	70,000	0,000E+0
1753,757	39,168	70,000	0,000E+0
1755,778	39,086	70,000	0,000E+0
1755,778	39,086	70,000	0,000E+0
1757,794	39,073	70,000	0,000E+0
1757,794	39,073	70,000	0,000E+0
1759,813	39,223	70,000	0,000E+0
1759,813	39,223	70,000	0,000E+0
1761,833	39,337	70,000	0,000E+0
1761,833	39,337	70,000	0,000E+0
1763,852	39,321	70,000	0,000E+0
1763,852	39,321	70,000	0,000E+0
1765,869	39,280	70,000	0,000E+0
1765,869	39,280	70,000	0,000E+0
1767,887	39,238	70,000	0,000E+0
1767,887	39,238	70,000	0,000E+0
1769,904	39,356	70,000	0,000E+0
1769,904	39,356	70,000	0,000E+0
1771,922	39,442	70,000	0,000E+0
1771,922	39,442	70,000	0,000E+0
1773,941	39,397	70,000	0,000E+0
1773,941	39,397	70,000	0,000E+0
1775,958	39,505	70,000	0,000E+0
1775,958	39,505	70,000	0,000E+0
1777,976	39,483	70,000	0,000E+0
1777,976	39,483	70,000	0,000E+0
1779,997	39,527	70,000	0,000E+0
1779,997	39,527	70,000	0,000E+0
1782,016	39,502	70,000	0,000E+0
1782,016	39,502	70,000	0,000E+0
1784,032	39,539	70,000	0,000E+0
1784,032	39,539	70,000	0,000E+0
1786,051	39,566	70,000	0,000E+0
1786,051	39,566	70,000	0,000E+0
1788,070	39,439	70,000	0,000E+0
1788,070	39,439	70,000	0,000E+0
1790,086	39,342	70,000	0,000E+0
1790,086	39,342	70,000	0,000E+0
1792,107	39,374	70,000	0,000E+0
1792,107	39,374	70,000	0,000E+0
1794,123	39,522	70,000	0,000E+0
1794,123	39,522	70,000	0,000E+0
1796,142	39,522	70,000	0,000E+0
1796,142	39,522	70,000	0,000E+0
1798,161	39,522	70,000	0,000E+0
1798,161	39,522	70,000	0,000E+0
1800,181	39,502	70,000	0,000E+0
1800,181	39,502	70,000	0,000E+0
1802,198	39,522	70,000	0,000E+0
1802,198	39,522	70,000	0,000E+0
1804,217	39,726	70,000	0,000E+0
1804,217	39,726	70,000	0,000E+0
1806,233	39,869	70,000	0,000E+0
1806,233	39,869	70,000	0,000E+0
1808,254	39,950	70,000	0,000E+0
1808,254	39,950	70,000	0,000E+0
1810,270	39,982	70,000	0,000E+0
1810,270	39,982	70,000	0,000E+0
1812,289	39,889	70,000	0,000E+0
1812,289	39,889	70,000	0,000E+0
1814,308	39,759	70,000	0,000E+0
1814,308	39,759	70,000	0,000E+0
1816,326	39,762	70,000	0,000E+0
1816,326	39,762	70,000	0,000E+0
1818,343	39,837	70,000	0,000E+0
1818,343	39,837	70,000	0,000E+0
1820,362	39,753	70,000	0,000E+0
1820,362	39,753	70,000	0,000E+0
1822,378	39,756	70,000	0,000E+0
1822,378	39,756	70,000	0,000E+0
1824,397	39,891	70,000	0,000E+0
1824,397	39,891	70,000	0,000E+0
1826,414	39,963	70,000	0,000E+0
1826,414	39,963	70,000	0,000E+0
1828,432	40,043	70,000	0,000E+0
1828,432	40,043	70,000	0,000E+0
1830,451	40,008	70,000	0,000E+0
1830,451	40,008	70,000	0,000E+0
1832,469	40,005	70,000	0,000E+0
1832,469	40,005	70,000	0,000E+0
1834,488	39,992	70,000	0,000E+0
1834,488	39,992	70,000	0,000E+0
1836,507	39,996	70,000	0,000E+0
1836,507	39,996	70,000	0,000E+0
1838,525	39,918	70,000	0,000E+0
1838,525	39,918	70,000	0,000E+0
1840,544	39,955	70,000	0,000E+0
1840,544	39,955	70,000	0,000E+0
1840,544	39,955	70,000	0,000E+0
1842,563	39,993	70,000	0,000E+0
1842,563	39,993	70,000	0,000E+0
1844,581	40,078	70,000	0,000E+0
1844,581	40,078	70,000	0,000E+0
1846,598	40,051	70,000	0,000E+0
1846,598	40,051	70,000	0,000E+0
1848,617	40,186	70,000	0,000E+0
1848,617	40,186	70,000	0,000E+0
1850,635	40,101	70,000	0,000E+0
1850,635	40,101	70,000	0,000E+0
1852,654	40,081	70,000	0,000E+0
1852,654	40,081	70,000	0,000E+0
1854,671	40,098	70,000	0,000E+0
1854,671	40,098	70,000	0,000E+0
1856,687	40,175	70,000	0,000E+0
1856,687	40,175	70,000	0,000E+0
1858,706	40,125	70,000	0,000E+0
1858,706	40,125	70,000	0,000E+0
1860,724	40,067	70,000	0,000E+0
1860,724	40,067	70,000	0,000E+0
1862,741	40,085	70,000	0,000E+0
1862,741	40,085	70,000	0,000E+0
1864,762	40,143	70,000	0,000E+0
1864,762	40,143	70,000	0,000E+0
1866,778	40,088	70,000	0,000E+0
1866,778	40,088	70,000	0,000E+0
1868,797	40,055	70,000	0,000E+0
1868,797	40,055	70,000	0,000E+0
1870,816	40,133	70,000	0,000E+0
1870,816	40,133	70,000	0,000E+0
1872,834	40,201	70,000	0,000E+0
1872,834	40,201	70,000	0,000E+0
1874,851	40,268	70,000	0,000E+0
1874,851	40,268	70,000	0,000E+0
1876,869	40,275	70,000	0,000E+0
1876,869	40,275	70,000	0,000E+0
1878,886	40,328	70,000	0,000E+0
1878,886	40,328	70,000	0,000E+0
1880,905	40,263	70,000	0,000E+0
1880,905	40,263	70,000	0,000E+0
1882,921	40,185	70,000	0,000E+0
1882,921	40,185	70,000	0,000E+0
1884,942	40,360	70,000	0,000E+0
1884,942	40,360	70,000	0,000E+0
1886,959	40,330	70,000	0,000E+0
1886,959	40,330	70,000	0,000E+0
1888,979	40,318	70,000	0,000E+0
1888,979	40,318	70,000	0,000E+0
1890,996	40,228	70,000	0,000E+0
1890,996	40,228	70,000	0,000E+0
1893,014	40,353	70,000	0,000E+0
1893,014	40,353	70,000	0,000E+0
1895,033	40,353	70,000	0,000E+0
1895,033	40,353	70,000	0,000E+0
1897,050	40,243	70,000	0,000E+0
1897,050	40,243	70,000	0,000E+0
1899,068	40,268	70,000	0,000E+0
1899,068	40,268	70,000	0,000E+0
1901,087	40,405	70,000	0,000E+0
1901,087	40,405	70,000	0,000E+0
1903,104	40,428	70,000	0,000E+0
1903,104	40,428	70,000	0,000E+0
1905,122	40,328	70,000	0,000E+0
1905,122	40,328	70,000	0,000E+0
1907,139	40,416	70,000	0,000E+0
1907,139	40,416	70,000	0,000E+0
1909,158	40,418	70,000	0,000E+0
1909,158	40,418	70,000	0,000E+0
1911,178	40,484	70,000	0,000E+0
1911,178	40,484	70,000	0,000E+0
1913,197	40,464	70,000	0,000E+0
1913,197	40,464	70,000	0,000E+0
1915,215	40,381	70,000	0,000E+0
1915,215	40,381	70,000	0,000E+0
1917,310	40,486	70,000	0,000E+0
1917,310	40,486	70,000	0,000E+0
1919,401	40,421	70,000	0,000E+0
1919,401	40,421	70,000	0,000E+0
1921,492	40,378	70,000	0,000E+0
1921,492	40,378	70,000	0,000E+0
1923,508	40,458	70,000	0,000E+0
1923,508	40,458	70,000	0,000E+0
1925,527	40,499	70,000	0,000E+0
1925,527	40,499	70,000	0,000E+0
1927,545	40,501	70,000	0,000E+0
1927,545	40,501	70,000	0,000E+0
1929,564	40,521	70,000	0,000E+0
1929,564	40,521	70,000	0,000E+0
1931,581	40,564	70,000	0,000E+0
1931,581	40,564	70,000	0,000E+0
1931,581	40,564	70,000	0,000E+0
1933,599	40,534	70,000	0,000E+0
1933,599	40,534	70,000	0,000E+0
1935,616	40,519	70,000	0,000E+0
1935,616	40,519	70,000	0,000E+0
1937,634	40,529	70,000	0,000E+0
1937,634	40,529	70,000	0,000E+0
1939,651	40,537	70,000	0,000E+0
1939,651	40,537	70,000	0,000E+0
1941,670	40,509	70,000	0,000E+0
1941,670	40,509	70,000	0,000E+0
1943,686	40,614	70,000	0,000E+0
1943,686	40,614	70,000	0,000E+0
1945,707	40,596	70,000	0,000E+0
1945,707	40,596	70,000	0,000E+0
1947,723	40,536	70,000	0,000E+0
1947,723	40,536	70,000	0,000E+0
1949,742	40,606	70,000	0,000E+0
1949,742	40,606	70,000	0,000E+0
1951,759	40,634	70,000	0,000E+0
1951,759	40,634	70,000	0,000E+0
1953,777	40,793	70,000	0,000E+0
1953,777	40,793	70,000	0,000E+0
1955,794	40,792	70,000	0,000E+0
1955,794	40,792	70,000	0,000E+0
1957,813	40,832	70,000	0,000E+0
1957,813	40,832	70,000	0,000E+0
1959,905	40,667	70,000	0,000E+0
1959,905	40,667	70,000	0,000E+0
1961,996	40,707	70,000	0,000E+0
1961,996	40,707	70,000	0,000E+0
1964,087	40,655	70,000	0,000E+0
1964,087	40,655	70,000	0,000E+0
1966,177	40,787	70,000	0,000E+0
1966,177	40,787	70,000	0,000E+0
1968,266	40,697	70,000	0,000E+0
1968,266	40,697	70,000	0,000E+0
1970,357	40,787	70,000	0,000E+0
1970,357	40,787	70,000	0,000E+0
1972,448	40,865	70,000	0,000E+0
1972,448	40,865	70,000	0,000E+0
1974,536	40,880	70,000	0,000E+0
1974,536	40,880	70,000	0,000E+0
1974,536	40,880	70,000	0,000E+0
1976,629	40,893	70,000	0,000E+0
1976,629	40,893	70,000	0,000E+0
1978,722	40,805	70,000	0,000E+0
1978,722	40,805	70,000	0,000E+0
1980,815	40,827	70,000	0,000E+0
1980,815	40,827	70,000	0,000E+0
1982,910	40,878	70,000	0,000E+0
1982,910	40,878	70,000	0,000E+0
1985,002	40,775	70,000	0,000E+0
1985,002	40,775	70,000	0,000E+0
1987,093	40,871	70,000	0,000E+0
1987,093	40,871	70,000	0,000E+0
1989,184	40,883	70,000	0,000E+0
1989,184	40,883	70,000	0,000E+0
1991,272	40,903	70,000	0,000E+0
1991,272	40,903	70,000	0,000E+0
1993,363	40,966	70,000	0,000E+0
1993,363	40,966	70,000	0,000E+0
1995,454	40,829	70,000	0,000E+0
1995,454	40,829	70,000	0,000E+0
1997,544	41,049	70,000	0,000E+0
1997,544	41,049	70,000	0,000E+0
1997,544	41,049	70,000	0,000E+0
1999,633	41,076	70,000	0,000E+0
1999,633	41,076	70,000	0,000E+0
2001,726	41,049	70,000	0,000E+0
2001,726	41,049	70,000	0,000E+0
2003,815	41,151	70,000	0,000E+0
2003,815	41,151	70,000	0,000E+0
2005,903	40,983	70,000	0,000E+0
2005,903	40,983	70,000	0,000E+0
2007,994	40,965	70,000	0,000E+0
2007,994	40,965	70,000	0,000E+0
2010,085	41,064	70,000	0,000E+0
2010,085	41,064	70,000	0,000E+0
2012,173	40,986	70,000	0,000E+0
2012,173	40,986	70,000	0,000E+0
2014,264	41,096	70,000	0,000E+0
2014,264	41,096	70,000	0,000E+0
2016,353	41,011	70,000	0,000E+0
2016,353	41,011	70,000	0,000E+0
2018,443	41,094	70,000	0,000E+0
2018,443	41,094	70,000	0,000E+0
2020,532	41,159	70,000	0,000E+0
2020,532	41,159	70,000	0,000E+0
2022,623	41,127	70,000	0,000E+0
2022,623	41,127	70,000	0,000E+0
2022,623	41,127	70,000	0,000E+0
2024,788	41,217	70,000	0,000E+0
2024,788	41,217	70,000	0,000E+0
2026,878	41,279	70,000	0,000E+0
2026,878	41,279	70,000	0,000E+0
2028,969	41,177	70,000	0,000E+0
2028,969	41,177	70,000	0,000E+0
2031,060	41,244	70,000	0,000E+0
2031,060	41,244	70,000	0,000E+0
2033,227	41,312	70,000	0,000E+0
2033,227	41,312	70,000	0,000E+0
2035,396	41,274	70,000	0,000E+0
2035,396	41,274	70,000	0,000E+0
2037,488	41,157	70,000	0,000E+0
2037,488	41,157	70,000	0,000E+0
2039,583	41,144	70,000	0,000E+0
2039,583	41,144	70,000	0,000E+0
2039,583	41,144	70,000	0,000E+0
2041,672	41,204	70,000	0,000E+0
2041,672	41,204	70,000	0,000E+0
2043,765	41,307	70,000	0,000E+0
2043,765	41,307	70,000	0,000E+0
2045,853	41,329	70,000	0,000E+0
2045,853	41,329	70,000	0,000E+0
2048,020	41,292	70,000	0,000E+0
2048,020	41,292	70,000	0,000E+0
2050,187	41,337	70,000	0,000E+0
2050,187	41,337	70,000	0,000E+0
2052,352	41,347	70,000	0,000E+0
2052,352	41,347	70,000	0,000E+0
2054,521	41,337	70,000	0,000E+0
2054,521	41,337	70,000	0,000E+0
2054,521	41,337	70,000	0,000E+0
2056,685	41,369	70,000	0,000E+0
2056,685	41,369	70,000	0,000E+0
2058,852	41,412	70,000	0,000E+0
2058,852	41,412	70,000	0,000E+0
2061,019	41,317	70,000	0,000E+0
2061,019	41,317	70,000	0,000E+0
2063,186	41,226	70,000	0,000E+0
2063,186	41,226	70,000	0,000E+0
2065,353	41,179	70,000	0,000E+0
2065,353	41,179	70,000	0,000E+0
2067,521	41,083	70,000	0,000E+0
2067,521	41,083	70,000	0,000E+0
2067,521	41,083	70,000	0,000E+0
2069,686	41,163	70,000	0,000E+0
2069,686	41,163	70,000	0,000E+0
2071,853	41,438	70,000	0,000E+0
2071,853	41,438	70,000	0,000E+0
2074,018	41,496	70,000	0,000E+0
2074,018	41,496	70,000	0,000E+0
2076,185	41,486	70,000	0,000E+0
2076,185	41,486	70,000	0,000E+0
2078,351	41,456	70,000	0,000E+0
2078,351	41,456	70,000	0,000E+0
2080,516	41,506	70,000	0,000E+0
2080,516	41,506	70,000	0,000E+0
2080,516	41,506	70,000	0,000E+0
2082,679	41,539	70,000	0,000E+0
2082,679	41,539	70,000	0,000E+0
2084,846	41,614	70,000	0,000E+0
2084,846	41,614	70,000	0,000E+0
2087,015	41,637	70,000	0,000E+0
2087,015	41,637	70,000	0,000E+0
2089,182	41,561	70,000	0,000E+0
2089,182	41,561	70,000	0,000E+0
2091,346	41,604	70,000	0,000E+0
2091,346	41,604	70,000	0,000E+0
2093,515	41,767	70,000	0,000E+0
2093,515	41,767	70,000	0,000E+0
2093,515	41,767	70,000	0,000E+0
2095,682	41,995	70,000	0,000E+0
2095,682	41,995	70,000	0,000E+0
2097,847	41,938	70,000	0,000E+0
2097,847	41,938	70,000	0,000E+0
2100,016	41,945	70,000	0,000E+0
2100,016	41,945	70,000	0,000E+0
2102,183	41,975	70,000	0,000E+0
2102,183	41,975	70,000	0,000E+0
2104,347	41,922	70,000	0,000E+0
2104,347	41,922	70,000	0,000E+0
2106,514	41,872	70,000	0,000E+0
2106,514	41,872	70,000	0,000E+0
2106,514	41,872	70,000	0,000E+0
2108,679	41,927	70,000	0,000E+0
2108,679	41,927	70,000	0,000E+0
2110,848	41,927	70,000	0,000E+0
2110,848	41,927	70,000	0,000E+0
2113,015	41,927	70,000	0,000E+0
2113,015	41,927	70,000	0,000E+0
2115,180	41,955	70,000	0,000E+0
2115,180	41,955	70,000	0,000E+0
2117,349	41,963	70,000	0,000E+0
2117,349	41,963	70,000	0,000E+0
2119,511	41,867	70,000	0,000E+0
2119,511	41,867	70,000	0,000E+0
2119,511	41,867	70,000	0,000E+0
2121,678	41,925	70,000	0,000E+0
2121,678	41,925	70,000	0,000E+0
2123,845	41,890	70,000	0,000E+0
2123,845	41,890	70,000	0,000E+0
2126,012	41,897	70,000	0,000E+0
2126,012	41,897	70,000	0,000E+0
2128,178	42,007	70,000	0,000E+0
2128,178	42,007	70,000	0,000E+0
2130,343	42,036	70,000	0,000E+0
2130,343	42,036	70,000	0,000E+0
2132,510	42,112	70,000	0,000E+0
2132,510	42,112	70,000	0,000E+0
2132,510	42,112	70,000	0,000E+0
2134,677	42,190	70,000	0,000E+0
2134,677	42,190	70,000	0,000E+0
2136,844	42,050	70,000	0,000E+0
2136,844	42,050	70,000	0,000E+0
2139,011	42,037	70,000	0,000E+0
2139,011	42,037	70,000	0,000E+0
2141,177	42,012	70,000	0,000E+0
2141,177	42,012	70,000	0,000E+0
2143,344	41,995	70,000	0,000E+0
2143,344	41,995	70,000	0,000E+0
2145,513	42,153	70,000	0,000E+0
2145,513	42,153	70,000	0,000E+0
2145,513	42,153	70,000	0,000E+0
2147,682	42,121	70,000	0,000E+0
2147,682	42,121	70,000	0,000E+0
2149,849	42,146	70,000	0,000E+0
2149,849	42,146	70,000	0,000E+0
2152,015	42,138	70,000	0,000E+0
2152,015	42,138	70,000	0,000E+0
2154,182	42,157	70,000	0,000E+0
2154,182	42,157	70,000	0,000E+0
2156,349	42,140	70,000	0,000E+0
2156,349	42,140	70,000	0,000E+0
2158,516	42,252	70,000	0,000E+0
2158,516	42,252	70,000	0,000E+0
2158,516	42,252	70,000	0,000E+0
2160,681	42,170	70,000	0,000E+0
2160,681	42,170	70,000	0,000E+0
2162,850	42,171	70,000	0,000E+0
2162,850	42,171	70,000	0,000E+0
2165,014	42,123	70,000	0,000E+0
2165,014	42,123	70,000	0,000E+0
2167,179	42,129	70,000	0,000E+0
2167,179	42,129	70,000	0,000E+0
2169,348	42,157	70,000	0,000E+0
2169,348	42,157	70,000	0,000E+0
2171,513	42,247	70,000	0,000E+0
2171,513	42,247	70,000	0,000E+0
2171,513	42,247	70,000	0,000E+0
2173,680	42,249	70,000	0,000E+0
2173,680	42,249	70,000	0,000E+0
2175,847	42,179	70,000	0,000E+0
2175,847	42,179	70,000	0,000E+0
2178,011	42,217	70,000	0,000E+0
2178,011	42,217	70,000	0,000E+0
2180,178	42,289	70,000	0,000E+0
2180,178	42,289	70,000	0,000E+0
2182,345	42,332	70,000	0,000E+0
2182,345	42,332	70,000	0,000E+0
2184,512	42,336	70,000	0,000E+0
2184,512	42,336	70,000	0,000E+0
2186,681	42,346	70,000	0,000E+0
2186,681	42,346	70,000	0,000E+0
2186,681	42,346	70,000	0,000E+0
2188,848	42,369	70,000	0,000E+0
2188,848	42,369	70,000	0,000E+0
2191,018	42,386	70,000	0,000E+0
2191,018	42,386	70,000	0,000E+0
2193,187	42,374	70,000	0,000E+0
2193,187	42,374	70,000	0,000E+0
2195,356	42,349	70,000	0,000E+0
2195,356	42,349	70,000	0,000E+0
2197,523	42,409	70,000	0,000E+0
2197,523	42,409	70,000	0,000E+0
2197,523	42,409	70,000	0,000E+0
2199,690	42,633	70,000	0,000E+0
2199,690	42,633	70,000	0,000E+0
2201,859	42,626	70,000	0,000E+0
2201,859	42,626	70,000	0,000E+0
2204,023	42,656	70,000	0,000E+0
2204,023	42,656	70,000	0,000E+0
2206,190	42,738	70,000	0,000E+0
2206,190	42,738	70,000	0,000E+0
2208,357	42,691	70,000	0,000E+0
2208,357	42,691	70,000	0,000E+0
2210,524	42,731	70,000	0,000E+0
2210,524	42,731	70,000	0,000E+0
2212,693	42,681	70,000	0,000E+0
2212,693	42,681	70,000	0,000E+0
2212,693	42,681	70,000	0,000E+0
2214,860	42,673	70,000	0,000E+0
2214,860	42,673	70,000	0,000E+0
2217,027	42,616	70,000	0,000E+0
2217,027	42,616	70,000	0,000E+0
2219,193	42,589	70,000	0,000E+0
2219,193	42,589	70,000	0,000E+0
2221,360	42,556	70,000	0,000E+0
2221,360	42,556	70,000	0,000E+0
2223,527	42,576	70,000	0,000E+0
2223,527	42,576	70,000	0,000E+0
2225,694	42,584	70,000	0,000E+0
2225,694	42,584	70,000	0,000E+0
2225,694	42,584	70,000	0,000E+0
2227,859	42,634	70,000	0,000E+0
2227,859	42,634	70,000	0,000E+0
2230,026	42,631	70,000	0,000E+0
2230,026	42,631	70,000	0,000E+0
2232,188	42,656	70,000	0,000E+0
2232,188	42,656	70,000	0,000E+0
2234,357	42,664	70,000	0,000E+0
2234,357	42,664	70,000	0,000E+0
2236,522	42,581	70,000	0,000E+0
2236,522	42,581	70,000	0,000E+0
2238,693	42,649	70,000	0,000E+0
2238,693	42,649	70,000	0,000E+0
2238,693	42,649	70,000	0,000E+0
2240,864	42,821	70,000	0,000E+0
2240,864	42,821	70,000	0,000E+0
2243,031	42,935	70,000	0,000E+0
2243,031	42,935	70,000	0,000E+0
2245,197	43,105	70,000	0,000E+0
2245,197	43,105	70,000	0,000E+0
2247,362	43,120	70,000	0,000E+0
2247,362	43,120	70,000	0,000E+0
2249,529	43,080	70,000	0,000E+0
2249,529	43,080	70,000	0,000E+0
2251,696	42,935	70,000	0,000E+0
2251,696	42,935	70,000	0,000E+0
2251,696	42,935	70,000	0,000E+0
2253,861	42,865	70,000	0,000E+0
2253,861	42,865	70,000	0,000E+0
2256,025	42,863	70,000	0,000E+0
2256,025	42,863	70,000	0,000E+0
2258,192	42,753	70,000	0,000E+0
2258,192	42,753	70,000	0,000E+0
2260,357	42,820	70,000	0,000E+0
2260,357	42,820	70,000	0,000E+0
2262,522	42,867	70,000	0,000E+0
2262,522	42,867	70,000	0,000E+0
2264,689	42,858	70,000	0,000E+0
2264,689	42,858	70,000	0,000E+0
2264,689	42,858	70,000	0,000E+0
2266,849	42,987	70,000	0,000E+0
2266,849	42,987	70,000	0,000E+0
2269,016	43,025	70,000	0,000E+0
2269,016	43,025	70,000	0,000E+0
2271,183	42,995	70,000	0,000E+0
2271,183	42,995	70,000	0,000E+0
2273,352	42,838	70,000	0,000E+0
2273,352	42,838	70,000	0,000E+0
2275,518	42,741	70,000	0,000E+0
2275,518	42,741	70,000	0,000E+0
2277,685	42,785	70,000	0,000E+0
2277,685	42,785	70,000	0,000E+0
2277,685	42,785	70,000	0,000E+0
2279,854	42,870	70,000	0,000E+0
2279,854	42,870	70,000	0,000E+0
2282,023	42,897	70,000	0,000E+0
2282,023	42,897	70,000	0,000E+0
2284,190	42,803	70,000	0,000E+0
2284,190	42,803	70,000	0,000E+0
2286,356	42,831	70,000	0,000E+0
2286,356	42,831	70,000	0,000E+0
2288,523	42,928	70,000	0,000E+0
2288,523	42,928	70,000	0,000E+0
2290,688	43,080	70,000	0,000E+0
2290,688	43,080	70,000	0,000E+0
2290,688	43,080	70,000	0,000E+0
2292,855	43,185	70,000	0,000E+0
2292,855	43,185	70,000	0,000E+0
2295,017	43,043	70,000	0,000E+0
2295,017	43,043	70,000	0,000E+0
2297,184	42,996	70,000	0,000E+0
2297,184	42,996	70,000	0,000E+0
2299,351	43,125	70,000	0,000E+0
2299,351	43,125	70,000	0,000E+0
2301,516	43,083	70,000	0,000E+0
2301,516	43,083	70,000	0,000E+0
2303,683	43,095	70,000	0,000E+0
2303,683	43,095	70,000	0,000E+0
2303,683	43,095	70,000	0,000E+0
2305,849	43,245	70,000	0,000E+0
2305,849	43,245	70,000	0,000E+0
2308,014	43,272	70,000	0,000E+0
2308,014	43,272	70,000	0,000E+0
2310,181	43,215	70,000	0,000E+0
2310,181	43,215	70,000	0,000E+0
2312,348	43,339	70,000	0,000E+0
2312,348	43,339	70,000	0,000E+0
2314,515	43,322	70,000	0,000E+0
2314,515	43,322	70,000	0,000E+0
2316,684	43,337	70,000	0,000E+0
2316,684	43,337	70,000	0,000E+0
2316,684	43,337	70,000	0,000E+0
2318,852	43,340	70,000	0,000E+0
2318,852	43,340	70,000	0,000E+0
2321,023	43,429	70,000	0,000E+0
2321,023	43,429	70,000	0,000E+0
2323,192	43,474	70,000	0,000E+0
2323,192	43,474	70,000	0,000E+0
2325,357	43,497	70,000	0,000E+0
2325,357	43,497	70,000	0,000E+0
2327,523	43,492	70,000	0,000E+0
2327,523	43,492	70,000	0,000E+0
2329,690	43,587	70,000	0,000E+0
2329,690	43,587	70,000	0,000E+0
2329,690	43,587	70,000	0,000E+0
2331,855	43,565	70,000	0,000E+0
2331,855	43,565	70,000	0,000E+0
2334,022	43,490	70,000	0,000E+0
2334,022	43,490	70,000	0,000E+0
2336,189	43,377	70,000	0,000E+0
2336,189	43,377	70,000	0,000E+0
2338,353	43,482	70,000	0,000E+0
2338,353	43,482	70,000	0,000E+0
2340,522	43,505	70,000	0,000E+0
2340,522	43,505	70,000	0,000E+0
2342,689	43,584	70,000	0,000E+0
2342,689	43,584	70,000	0,000E+0
2342,689	43,584	70,000	0,000E+0
2344,856	43,722	70,000	0,000E+0
2344,856	43,722	70,000	0,000E+0
2347,023	43,573	70,000	0,000E+0
2347,023	43,573	70,000	0,000E+0
2349,187	43,495	70,000	0,000E+0
2349,187	43,495	70,000	0,000E+0
2351,354	43,644	70,000	0,000E+0
2351,354	43,644	70,000	0,000E+0
2353,521	43,761	70,000	0,000E+0
2353,521	43,761	70,000	0,000E+0
2355,688	43,699	70,000	0,000E+0
2355,688	43,699	70,000	0,000E+0
2355,688	43,699	70,000	0,000E+0
2357,855	43,736	70,000	0,000E+0
2357,855	43,736	70,000	0,000E+0
2360,021	43,650	70,000	0,000E+0
2360,021	43,650	70,000	0,000E+0
2362,188	43,645	70,000	0,000E+0
2362,188	43,645	70,000	0,000E+0
2364,355	43,520	70,000	0,000E+0
2364,355	43,520	70,000	0,000E+0
2366,520	43,377	70,000	0,000E+0
2366,520	43,377	70,000	0,000E+0
2368,687	43,450	70,000	0,000E+0
2368,687	43,450	70,000	0,000E+0
2368,687	43,450	70,000	0,000E+0
2370,853	43,530	70,000	0,000E+0
2370,853	43,530	70,000	0,000E+0
2373,020	43,560	70,000	0,000E+0
2373,020	43,560	70,000	0,000E+0
2375,187	43,545	70,000	0,000E+0
2375,187	43,545	70,000	0,000E+0
2377,352	43,575	70,000	0,000E+0
2377,352	43,575	70,000	0,000E+0
2379,519	43,540	70,000	0,000E+0
2379,519	43,540	70,000	0,000E+0
2381,682	43,705	70,000	0,000E+0
2381,682	43,705	70,000	0,000E+0
2381,682	43,705	70,000	0,000E+0
2383,846	43,665	70,000	0,000E+0
2383,846	43,665	70,000	0,000E+0
2386,015	43,642	70,000	0,000E+0
2386,015	43,642	70,000	0,000E+0
2388,184	43,592	70,000	0,000E+0
2388,184	43,592	70,000	0,000E+0
2390,349	43,564	70,000	0,000E+0
2390,349	43,564	70,000	0,000E+0
2392,517	43,535	70,000	0,000E+0
2392,517	43,535	70,000	0,000E+0
2394,684	43,722	70,000	0,000E+0
2394,684	43,722	70,000	0,000E+0
2394,684	43,722	70,000	0,000E+0
2396,849	43,735	70,000	0,000E+0
2396,849	43,735	70,000	0,000E+0
2399,018	43,672	70,000	0,000E+0
2399,018	43,672	70,000	0,000E+0
2401,185	43,657	70,000	0,000E+0
2401,185	43,657	70,000	0,000E+0
2403,351	43,677	70,000	0,000E+0
2403,351	43,677	70,000	0,000E+0
2405,520	43,732	70,000	0,000E+0
2405,520	43,732	70,000	0,000E+0
2407,687	43,720	70,000	0,000E+0
2407,687	43,720	70,000	0,000E+0
2407,687	43,720	70,000	0,000E+0
2409,856	43,730	70,000	0,000E+0
2409,856	43,730	70,000	0,000E+0
2412,023	43,859	70,000	0,000E+0
2412,023	43,859	70,000	0,000E+0
2414,189	43,643	70,000	0,000E+0
2414,189	43,643	70,000	0,000E+0
2416,358	43,757	70,000	0,000E+0
2416,358	43,757	70,000	0,000E+0
2418,523	43,777	70,000	0,000E+0
2418,523	43,648	70,000	0,000E+0
2420,652	43,648	70,000	0,000E+0
2420,652	43,648	70,000	0,000E+0
2420,652	43,648	70,000	0,000E+0
2422,831	43,986	70,000	0,000E+0
2422,831	43,986	70,000	0,000E+0
2424,998	43,954	70,000	0,000E+0
2424,998	43,954	70,000	0,000E+0
2427,164	44,074	70,000	0,000E+0
2427,164	44,074	70,000	0,000E+0
2429,333	44,138	70,000	0,000E+0
2429,333	44,138	70,000	0,000E+0
2431,500	44,126	70,000	0,000E+0
2431,500	44,126	70,000	0,000E+0
2433,667	44,093	70,000	0,000E+0
2433,667	44,093	70,000	0,000E+0
2433,667	44,093	70,000	0,000E+0
2435,833	44,126	70,000	0,000E+0
2435,833	44,126	70,000	0,000E+0
2437,996	44,146	70,000	0,000E+0
2437,996	44,146	70,000	0,000E+0
2440,163	44,044	70,000	0,000E+0
2440,163	44,044	70,000	0,000E+0
2442,328	44,001	70,000	0,000E+0
2442,328	44,001	70,000	0,000E+0
2444,493	44,118	70,000	0,000E+0
2444,493	44,118	70,000	0,000E+0
2446,660	44,103	70,000	0,000E+0
2446,660	44,103	70,000	0,000E+0
2446,660	44,103	70,000	0,000E+0
2448,824	44,270	70,000	0,000E+0
2448,824	44,270	70,000	0,000E+0
2450,989	44,388	70,000	0,000E+0
2450,989	44,388	70,000	0,000E+0
2453,158	44,373	70,000	0,000E+0
2453,158	44,373	70,000	0,000E+0
2455,323	44,407	70,000	0,000E+0
2455,323	44,407	70,000	0,000E+0
2457,490	44,390	70,000	0,000E+0
2457,490	44,390	70,000	0,000E+0
2459,656	44,353	70,000	0,000E+0
2459,656	44,353	70,000	0,000E+0
2459,656	44,353	70,000	0,000E+0
2461,821	44,417	70,000	0,000E+0
2461,821	44,417	70,000	0,000E+0
2463,988	44,477	70,000	0,000E+0
2463,988	44,477	70,000	0,000E+0
2466,153	44,452	70,000	0,000E+0
2466,153	44,452	70,000	0,000E+0
2468,322	44,475	70,000	0,000E+0
2468,322	44,475	70,000	0,000E+0
2470,491	44,263	70,000	0,000E+0
2470,491	44,263	70,000	0,000E+0
2472,657	44,250	70,000	0,000E+0
2472,657	44,250	70,000	0,000E+0
2472,657	44,250	70,000	0,000E+0
2474,824	44,366	70,000	0,000E+0
2474,824	44,366	70,000	0,000E+0
2476,991	44,346	70,000	0,000E+0
2476,991	44,346	70,000	0,000E+0
2479,156	44,575	70,000	0,000E+0
2479,156	44,575	70,000	0,000E+0
2481,323	44,565	70,000	0,000E+0
2481,323	44,565	70,000	0,000E+0
2483,489	44,498	70,000	0,000E+0
2483,489	44,498	70,000	0,000E+0
2485,654	44,530	70,000	0,000E+0
2485,654	44,530	70,000	0,000E+0
2487,821	44,709	70,000	0,000E+0
2487,821	44,709	70,000	0,000E+0
2487,821	44,709	70,000	0,000E+0
2489,988	44,642	70,000	0,000E+0
2489,988	44,642	70,000	0,000E+0
2492,155	44,473	70,000	0,000E+0
2492,155	44,473	70,000	0,000E+0
2494,324	44,501	70,000	0,000E+0
2494,324	44,501	70,000	0,000E+0
2496,491	44,620	70,000	0,000E+0
2496,491	44,620	70,000	0,000E+0
2498,657	44,628	70,000	0,000E+0
2498,657	44,628	70,000	0,000E+0
2500,824	44,488	70,000	0,000E+0
2500,824	44,488	70,000	0,000E+0
2500,824	44,488	70,000	0,000E+0
2502,993	44,483	70,000	0,000E+0
2502,993	44,483	70,000	0,000E+0
2505,162	44,562	70,000	0,000E+0
2505,162	44,562	70,000	0,000E+0
2507,331	44,697	70,000	0,000E+0
2507,331	44,697	70,000	0,000E+0
2509,498	44,702	70,000	0,000E+0
2509,498	44,702	70,000	0,000E+0
2511,662	44,622	70,000	0,000E+0
2511,662	44,622	70,000	0,000E+0
2511,662	44,622	70,000	0,000E+0
2513,833	44,697	70,000	0,000E+0
2513,833	44,697	70,000	0,000E+0
2516,000	44,692	70,000	0,000E+0
2516,000	44,692	70,000	0,000E+0
2518,165	44,585	70,000	0,000E+0
2518,165	44,585	70,000	0,000E+0
2520,334	44,655	70,000	0,000E+0
2520,334	44,655	70,000	0,000E+0
2522,504	44,575	70,000	0,000E+0
2522,504	44,575	70,000	0,000E+0
2524,671	44,475	70,000	0,000E+0
2524,671	44,475	70,000	0,000E+0
2524,671	44,475	70,000	0,000E+0
2526,836	44,573	70,000	0,000E+0
2526,836	44,573	70,000	0,000E+0
2529,001	44,770	70,000	0,000E+0
2529,001	44,770	70,000	0,000E+0
2531,166	44,698	70,000	0,000E+0
2531,166	44,698	70,000	0,000E+0
2533,332	44,710	70,000	0,000E+0
2533,332	44,710	70,000	0,000E+0
2535,497	44,742	70,000	0,000E+0
2535,497	44,742	70,000	0,000E+0
2537,664	44,711	70,000	0,000E+0
2537,664	44,711	70,000	0,000E+0
2539,831	44,785	70,000	0,000E+0
2539,831	44,785	70,000	0,000E+0
2539,831	44,785	70,000	0,000E+0
2541,993	44,952	70,000	0,000E+0
2541,993	44,952	70,000	0,000E+0
2544,160	45,072	70,000	0,000E+0
2544,160	45,072	70,000	0,000E+0
2546,323	45,041	70,000	0,000E+0
2546,323	45,041	70,000	0,000E+0
2548,490	45,028	70,000	0,000E+0
2548,490	45,028	70,000	0,000E+0
2550,657	45,016	70,000	0,000E+0
2550,657	45,016	70,000	0,000E+0
2552,823	44,847	70,000	0,000E+0
2552,823	44,847	70,000	0,000E+0
2552,823	44,847	70,000	0,000E+0
2554,988	44,670	70,000	0,000E+0
2554,988	44,670	70,000	0,000E+0
2557,155	44,682	70,000	0,000E+0
2557,155	44,682	70,000	0,000E+0
2559,322	44,822	70,000	0,000E+0
2559,322	44,822	70,000	0,000E+0
2561,489	44,882	70,000	0,000E+0
2561,489	44,882	70,000	0,000E+0
2563,657	44,987	70,000	0,000E+0
2563,657	44,987	70,000	0,000E+0
2565,824	44,865	70,000	0,000E+0
2565,824	44,865	70,000	0,000E+0
2565,824	44,865	70,000	0,000E+0
2567,991	44,883	70,000	0,000E+0
2567,991	44,883	70,000	0,000E+0
2570,158	44,788	70,000	0,000E+0
2570,158	44,788	70,000	0,000E+0
2572,325	44,903	70,000	0,000E+0
2572,325	44,903	70,000	0,000E+0
2574,492	44,928	70,000	0,000E+0
2574,492	44,928	70,000	0,000E+0
2576,657	45,072	70,000	0,000E+0
2576,657	45,072	70,000	0,000E+0
2578,821	45,088	70,000	0,000E+0
2578,821	45,088	70,000	0,000E+0
2578,821	45,088	70,000	0,000E+0
2580,988	45,095	70,000	0,000E+0
2580,988	45,095	70,000	0,000E+0
2583,155	44,963	70,000	0,000E+0
2583,155	44,963	70,000	0,000E+0
2585,322	45,026	70,000	0,000E+0
2585,322	45,026	70,000	0,000E+0
2587,488	45,041	70,000	0,000E+0
2587,488	45,041	70,000	0,000E+0
2589,655	45,138	70,000	0,000E+0
2589,655	45,138	70,000	0,000E+0
2591,822	45,271	70,000	0,000E+0
2591,822	45,271	70,000	0,000E+0
2591,822	45,271	70,000	0,000E+0
2593,989	45,300	70,000	0,000E+0
2593,989	45,300	70,000	0,000E+0
2596,154	45,337	70,000	0,000E+0
2596,154	45,337	70,000	0,000E+0
2598,323	45,409	70,000	0,000E+0
2598,323	45,409	70,000	0,000E+0
2600,487	45,334	70,000	0,000E+0
2600,487	45,334	70,000	0,000E+0
2602,652	45,234	70,000	0,000E+0
2602,652	45,234	70,000	0,000E+0
2604,819	45,248	70,000	0,000E+0
2604,819	45,248	70,000	0,000E+0
2604,819	45,248	70,000	0,000E+0
2606,984	45,197	70,000	0,000E+0
2606,984	45,197	70,000	0,000E+0
2609,149	45,242	70,000	0,000E+0
2609,149	45,242	70,000	0,000E+0
2611,315	45,269	70,000	0,000E+0
2611,315	45,269	70,000	0,000E+0
2613,482	45,311	70,000	0,000E+0
2613,482	45,311	70,000	0,000E+0
2615,649	45,249	70,000	0,000E+0
2615,649	45,249	70,000	0,000E+0
2617,814	45,220	70,000	0,000E+0
2617,814	45,220	70,000	0,000E+0
2617,814	45,220	70,000	0,000E+0
2619,983	45,339	70,000	0,000E+0
2619,983	45,339	70,000	0,000E+0
2622,150	45,416	70,000	0,000E+0
2622,150	45,416	70,000	0,000E+0
2624,318	45,478	70,000	0,000E+0
2624,318	45,478	70,000	0,000E+0
2626,483	45,364	70,000	0,000E+0
2626,483	45,364	70,000	0,000E+0
2628,648	45,287	70,000	0,000E+0
2628,648	45,287	70,000	0,000E+0
2630,817	45,290	70,000	0,000E+0
2630,817	45,290	70,000	0,000E+0
2630,817	45,290	70,000	0,000E+0
2632,986	45,270	70,000	0,000E+0
2632,986	45,270	70,000	0,000E+0
2635,151	45,447	70,000	0,000E+0
2635,151	45,447	70,000	0,000E+0
2637,317	45,544	70,000	0,000E+0
2637,317	45,544	70,000	0,000E+0
2639,484	45,584	70,000	0,000E+0
2639,484	45,584	70,000	0,000E+0
2641,653	45,501	70,000	0,000E+0
2641,653	45,501	70,000	0,000E+0
2643,822	45,519	70,000	0,000E+0
2643,822	45,519	70,000	0,000E+0
2643,822	45,519	70,000	0,000E+0
2645,987	45,441	70,000	0,000E+0
2645,987	45,441	70,000	0,000E+0
2648,154	45,399	70,000	0,000E+0
2648,154	45,399	70,000	0,000E+0
2650,320	45,436	70,000	0,000E+0
2650,320	45,436	70,000	0,000E+0
2652,487	45,561	70,000	0,000E+0
2652,487	45,561	70,000	0,000E+0
2654,652	45,683	70,000	0,000E+0
2654,652	45,683	70,000	0,000E+0
2656,817	45,648	70,000	0,000E+0
2656,817	45,648	70,000	0,000E+0
2656,817	45,648	70,000	0,000E+0
2658,984	45,671	70,000	0,000E+0
2658,984	45,671	70,000	0,000E+0
2661,148	45,564	70,000	0,000E+0
2661,148	45,564	70,000	0,000E+0
2663,315	45,596	70,000	0,000E+0
2663,315	45,596	70,000	0,000E+0
2665,484	45,671	70,000	0,000E+0
2665,484	45,671	70,000	0,000E+0
2667,651	45,805	70,000	0,000E+0
2667,651	45,805	70,000	0,000E+0
2669,816	45,877	70,000	0,000E+0
2669,816	45,877	70,000	0,000E+0
2669,816	45,877	70,000	0,000E+0
2671,984	45,855	70,000	0,000E+0
2671,984	45,855	70,000	0,000E+0
2674,149	45,748	70,000	0,000E+0
2674,149	45,748	70,000	0,000E+0
2676,316	45,680	70,000	0,000E+0
2676,316	45,680	70,000	0,000E+0
2678,483	45,665	70,000	0,000E+0
2678,483	45,665	70,000	0,000E+0
2680,650	45,616	70,000	0,000E+0
2680,650	45,616	70,000	0,000E+0
2682,821	45,701	70,000	0,000E+0
2682,821	45,701	70,000	0,000E+0
2682,821	45,701	70,000	0,000E+0
2684,987	45,698	70,000	0,000E+0
2684,987	45,698	70,000	0,000E+0
2687,154	45,713	70,000	0,000E+0
2687,154	45,713	70,000	0,000E+0
2689,321	45,785	70,000	0,000E+0
2689,321	45,785	70,000	0,000E+0
2691,486	45,785	70,000	0,000E+0
2691,486	45,785	70,000	0,000E+0
2693,655	45,778	70,000	0,000E+0
2693,655	45,778	70,000	0,000E+0
2695,820	45,725	70,000	0,000E+0
2695,820	45,725	70,000	0,000E+0
2695,820	45,725	70,000	0,000E+0
2697,986	45,787	70,000	0,000E+0
2697,986	45,787	70,000	0,000E+0
2700,153	45,800	70,000	0,000E+0
2700,153	45,800	70,000	0,000E+0
2702,318	45,975	70,000	0,000E+0
2702,318	45,975	70,000	0,000E+0
2704,485	46,114	70,000	0,000E+0
2704,485	46,114	70,000	0,000E+0
2706,652	46,154	70,000	0,000E+0
2706,652	46,154	70,000	0,000E+0
2708,817	46,269	70,000	0,000E+0
2708,817	46,269	70,000	0,000E+0
2708,817	46,269	70,000	0,000E+0
2710,985	46,376	70,000	0,000E+0
2710,985	46,376	70,000	0,000E+0
2713,150	46,271	70,000	0,000E+0
2713,150	46,271	70,000	0,000E+0
2715,319	46,249	70,000	0,000E+0
2715,319	46,249	70,000	0,000E+0
2717,488	46,065	70,000	0,000E+0
2717,488	46,065	70,000	0,000E+0
2719,653	46,130	70,000	0,000E+0
2719,653	46,130	70,000	0,000E+0
2721,819	46,112	70,000	0,000E+0
2721,819	46,112	70,000	0,000E+0
2721,819	46,112	70,000	0,000E+0
2723,987	46,127	70,000	0,000E+0
2723,987	46,127	70,000	0,000E+0
2726,151	46,095	70,000	0,000E+0
2726,151	46,095	70,000	0,000E+0
2728,320	46,037	70,000	0,000E+0
2728,320	46,037	70,000	0,000E+0
2730,487	46,271	70,000	0,000E+0
2730,487	46,271	70,000	0,000E+0
2732,653	46,282	70,000	0,000E+0
2732,653	46,282	70,000	0,000E+0
2734,818	46,194	70,000	0,000E+0
2734,818	46,194	70,000	0,000E+0
2734,818	46,194	70,000	0,000E+0
2736,985	46,100	70,000	0,000E+0
2736,985	46,100	70,000	0,000E+0
2739,152	46,085	70,000	0,000E+0
2739,152	46,085	70,000	0,000E+0
2741,319	46,095	70,000	0,000E+0
2741,319	46,095	70,000	0,000E+0
2743,486	46,100	70,000	0,000E+0
2743,486	46,100	70,000	0,000E+0
2745,653	46,175	70,000	0,000E+0
2745,653	46,175	70,000	0,000E+0
2747,819	46,244	70,000	0,000E+0
2747,819	46,244	70,000	0,000E+0
2747,819	46,244	70,000	0,000E+0
2749,986	46,235	70,000	0,000E+0
2749,986	46,235	70,000	0,000E+0
2752,153	46,302	70,000	0,000E+0
2752,153	46,302	70,000	0,000E+0
2754,322	46,342	70,000	0,000E+0
2754,322	46,342	70,000	0,000E+0
2756,487	46,349	70,000	0,000E+0
2756,487	46,349	70,000	0,000E+0
2758,656	46,281	70,000	0,000E+0
2758,656	46,281	70,000	0,000E+0
2760,822	46,257	70,000	0,000E+0
2760,822	46,257	70,000	0,000E+0
2760,822	46,257	70,000	0,000E+0
2762,987	46,252	70,000	0,000E+0
2762,987	46,252	70,000	0,000E+0
2765,154	46,270	70,000	0,000E+0
2765,154	46,270	70,000	0,000E+0
2767,323	46,367	70,000	0,000E+0
2767,323	46,367	70,000	0,000E+0
2769,490	46,384	70,000	0,000E+0
2769,490	46,384	70,000	0,000E+0
2771,659	46,542	70,000	0,000E+0
2771,659	46,542	70,000	0,000E+0
2773,826	46,492	70,000	0,000E+0
2773,826	46,492	70,000	0,000E+0
2773,826	46,492	70,000	0,000E+0
2775,994	46,562	70,000	0,000E+0
2775,994	46,562	70,000	0,000E+0
2778,161	46,542	70,000	0,000E+0
2778,161	46,542	70,000	0,000E+0
2780,326	46,522	70,000	0,000E+0
2780,326	46,522	70,000	0,000E+0
2782,493	46,579	70,000	0,000E+0
2782,493	46,579	70,000	0,000E+0
2784,661	46,635	70,000	0,000E+0
2784,661	46,635	70,000	0,000E+0
2786,826	46,575	70,000	0,000E+0
2786,826	46,575	70,000	0,000E+0
2786,826	46,575	70,000	0,000E+0
2788,995	46,727	70,000	0,000E+0
2788,995	46,727	70,000	0,000E+0
2791,160	46,772	70,000	0,000E+0
2791,160	46,772	70,000	0,000E+0
2793,327	46,721	70,000	0,000E+0
2793,327	46,721	70,000	0,000E+0
2795,495	46,816	70,000	0,000E+0
2795,495	46,816	70,000	0,000E+0
2797,660	46,774	70,000	0,000E+0
2797,660	46,774	70,000	0,000E+0
2799,827	46,782	70,000	0,000E+0
2799,827	46,782	70,000	0,000E+0
2799,827	46,782	70,000	0,000E+0
2801,994	46,750	70,000	0,000E+0
2801,994	46,750	70,000	0,000E+0
2804,161	46,610	70,000	0,000E+0
2804,161	46,610	70,000	0,000E+0
2806,327	46,485	70,000	0,000E+0
2806,327	46,485	70,000	0,000E+0
2808,494	46,490	70,000	0,000E+0
2808,494	46,490	70,000	0,000E+0
2810,663	46,600	70,000	0,000E+0
2810,663	46,600	70,000	0,000E+0
2812,828	46,513	70,000	0,000E+0
2812,828	46,513	70,000	0,000E+0
2812,828	46,513	70,000	0,000E+0
2814,993	46,590	70,000	0,000E+0
2814,993	46,590	70,000	0,000E+0
2817,159	46,750	70,000	0,000E+0
2817,159	46,750	70,000	0,000E+0
2819,326	46,740	70,000	0,000E+0
2819,326	46,740	70,000	0,000E+0
2821,493	46,630	70,000	0,000E+0
2821,493	46,630	70,000	0,000E+0
2823,660	46,705	70,000	0,000E+0
2823,660	46,705	70,000	0,000E+0
2825,827	46,832	70,000	0,000E+0
2825,827	46,832	70,000	0,000E+0
2825,827	46,832	70,000	0,000E+0
2827,991	46,952	70,000	0,000E+0
2827,991	46,952	70,000	0,000E+0
2830,158	47,019	70,000	0,000E+0
2830,158	47,019	70,000	0,000E+0
2832,323	47,151	70,000	0,000E+0
2832,323	47,151	70,000	0,000E+0
2834,492	47,076	70,000	0,000E+0
2834,492	47,076	70,000	0,000E+0
2836,659	47,253	70,000	0,000E+0
2836,659	47,253	70,000	0,000E+0
2838,823	47,291	70,000	0,000E+0
2838,823	47,291	70,000	0,000E+0
2838,823	47,291	70,000	0,000E+0
2840,992	47,169	70,000	0,000E+0
2840,992	47,169	70,000	0,000E+0
2843,159	47,029	70,000	0,000E+0
2843,159	47,029	70,000	0,000E+0
2845,324	46,956	70,000	0,000E+0
2845,324	46,956	70,000	0,000E+0
2847,489	46,956	70,000	0,000E+0
2847,489	46,956	70,000	0,000E+0
2849,654	46,986	70,000	0,000E+0
2849,654	46,986	70,000	0,000E+0
2851,822	46,921	70,000	0,000E+0
2851,822	46,921	70,000	0,000E+0
2851,822	46,921	70,000	0,000E+0
2853,989	46,832	70,000	0,000E+0
2853,989	46,832	70,000	0,000E+0
2856,156	46,769	70,000	0,000E+0
2856,156	46,769	70,000	0,000E+0
2858,325	46,954	70,000	0,000E+0
2858,325	46,954	70,000	0,000E+0
2860,493	47,063	70,000	0,000E+0
2860,493	47,063	70,000	0,000E+0
2862,660	47,101	70,000	0,000E+0
2862,660	47,101	70,000	0,000E+0
2864,829	47,061	70,000	0,000E+0
2864,829	47,061	70,000	0,000E+0
2864,829	47,061	70,000	0,000E+0
2867,000	47,021	70,000	0,000E+0
2867,000	47,021	70,000	0,000E+0
2869,167	47,038	70,000	0,000E+0
2869,167	47,038	70,000	0,000E+0
2871,334	47,108	70,000	0,000E+0
2871,334	47,108	70,000	0,000E+0
2873,501	47,185	70,000	0,000E+0
2873,501	47,185	70,000	0,000E+0
2875,671	47,250	70,000	0,000E+0
2875,671	47,250	70,000	0,000E+0
2877,838	47,250	70,000	0,000E+0
2877,838	47,250	70,000	0,000E+0
2877,838	47,250	70,000	0,000E+0
2880,007	47,253	70,000	0,000E+0
2880,007	47,253	70,000	0,000E+0
2882,174	47,238	70,000	0,000E+0
2882,174	47,238	70,000	0,000E+0
2884,339	47,280	70,000	0,000E+0
2884,339	47,280	70,000	0,000E+0
2886,508	47,355	70,000	0,000E+0
2886,508	47,355	70,000	0,000E+0
2888,672	47,364	70,000	0,000E+0
2888,672	47,364	70,000	0,000E+0
2890,839	47,332	70,000	0,000E+0
2890,839	47,332	70,000	0,000E+0
2890,839	47,332	70,000	0,000E+0
2893,006	47,307	70,000	0,000E+0
2893,006	47,307	70,000	0,000E+0
2895,171	47,317	70,000	0,000E+0
2895,171	47,317	70,000	0,000E+0
2897,338	47,300	70,000	0,000E+0
2897,338	47,300	70,000	0,000E+0
2899,504	47,265	70,000	0,000E+0
2899,504	47,265	70,000	0,000E+0
2901,667	47,322	70,000	0,000E+0
2901,667	47,322	70,000	0,000E+0
2903,832	47,372	70,000	0,000E+0
2903,832	47,372	70,000	0,000E+0
2903,832	47,372	70,000	0,000E+0
2905,999	47,442	70,000	0,000E+0
2905,999	47,442	70,000	0,000E+0
2908,166	47,524	70,000	0,000E+0
2908,166	47,524	70,000	0,000E+0
2910,332	47,444	70,000	0,000E+0
2910,332	47,444	70,000	0,000E+0
2912,499	47,342	70,000	0,000E+0
2912,499	47,342	70,000	0,000E+0
2914,666	47,273	70,000	0,000E+0
2914,666	47,273	70,000	0,000E+0
2916,833	47,217	70,000	0,000E+0
2916,833	47,217	70,000	0,000E+0
2916,833	47,217	70,000	0,000E+0
2918,998	47,300	70,000	0,000E+0
2918,998	47,300	70,000	0,000E+0
2921,165	47,414	70,000	0,000E+0
2921,165	47,414	70,000	0,000E+0
2923,331	47,352	70,000	0,000E+0
2923,331	47,352	70,000	0,000E+0
2925,502	47,349	70,000	0,000E+0
2925,502	47,349	70,000	0,000E+0
2927,669	47,260	70,000	0,000E+0
2927,669	47,260	70,000	0,000E+0
2929,836	47,319	70,000	0,000E+0
2929,836	47,319	70,000	0,000E+0
2929,836	47,319	70,000	0,000E+0
2932,003	47,374	70,000	0,000E+0
2932,003	47,374	70,000	0,000E+0
2934,167	47,459	70,000	0,000E+0
2934,167	47,459	70,000	0,000E+0
2936,336	47,496	70,000	0,000E+0
2936,336	47,496	70,000	0,000E+0
2938,505	47,548	70,000	0,000E+0
2938,505	47,548	70,000	0,000E+0
2940,670	47,579	70,000	0,000E+0
2940,670	47,579	70,000	0,000E+0
2942,837	47,589	70,000	0,000E+0
2942,837	47,589	70,000	0,000E+0
2942,837	47,589	70,000	0,000E+0
2945,004	47,462	70,000	0,000E+0
2945,004	47,462	70,000	0,000E+0
2947,170	47,559	70,000	0,000E+0
2947,170	47,559	70,000	0,000E+0
2949,337	47,489	70,000	0,000E+0
2949,337	47,489	70,000	0,000E+0
2951,502	47,576	70,000	0,000E+0
2951,502	47,576	70,000	0,000E+0
2953,671	47,641	70,000	0,000E+0
2953,671	47,641	70,000	0,000E+0
2955,840	47,604	70,000	0,000E+0
2955,840	47,604	70,000	0,000E+0
2955,840	47,604	70,000	0,000E+0
2958,007	47,688	70,000	0,000E+0
2958,007	47,688	70,000	0,000E+0
2960,173	47,733	70,000	0,000E+0
2960,173	47,733	70,000	0,000E+0
2962,338	47,657	70,000	0,000E+0
2962,338	47,657	70,000	0,000E+0
2964,505	47,814	70,000	0,000E+0
2964,505	47,814	70,000	0,000E+0
2966,672	47,902	70,000	0,000E+0
2966,672	47,902	70,000	0,000E+0
2968,837	47,894	70,000	0,000E+0
2968,837	47,894	70,000	0,000E+0
2968,837	47,894	70,000	0,000E+0
2971,004	47,907	70,000	0,000E+0
2971,004	47,907	70,000	0,000E+0
2973,169	47,852	70,000	0,000E+0
2973,169	47,852	70,000	0,000E+0
2975,335	47,874	70,000	0,000E+0
2975,335	47,874	70,000	0,000E+0
2977,502	47,900	70,000	0,000E+0
2977,502	47,900	70,000	0,000E+0
2979,669	47,815	70,000	0,000E+0
2979,669	47,815	70,000	0,000E+0
2981,834	47,782	70,000	0,000E+0
2981,834	47,782	70,000	0,000E+0
2981,834	47,782	70,000	0,000E+0
2984,001	47,887	70,000	0,000E+0
2984,001	47,887	70,000	0,000E+0
2986,165	47,793	70,000	0,000E+0
2986,165	47,793	70,000	0,000E+0
2988,332	47,872	70,000	0,000E+0
2988,332	47,872	70,000	0,000E+0
2990,499	47,895	70,000	0,000E+0
2990,499	47,895	70,000	0,000E+0
2992,668	47,904	70,000	0,000E+0
2992,668	47,904	70,000	0,000E+0
2994,839	48,007	70,000	0,000E+0
2994,839	48,007	70,000	0,000E+0
2994,839	48,007	70,000	0,000E+0
2997,006	48,004	70,000	0,000E+0
2997,006	48,004	70,000	0,000E+0
2999,175	48,009	70,000	0,000E+0
2999,175	48,009	70,000	0,000E+0
3001,342	47,909	70,000	0,000E+0
3001,342	47,909	70,000	0,000E+0
3003,510	47,944	70,000	0,000E+0
3003,510	47,944	70,000	0,000E+0
3005,677	48,121	70,000	0,000E+0
3005,677	48,121	70,000	0,000E+0
3007,840	48,082	70,000	0,000E+0
3007,840	48,082	70,000	0,000E+0
3007,840	48,082	70,000	0,000E+0
3010,007	48,097	70,000	0,000E+0
3010,007	48,097	70,000	0,000E+0
3012,172	48,156	70,000	0,000E+0
3012,172	48,156	70,000	0,000E+0
3014,339	48,241	70,000	0,000E+0
3014,339	48,241	70,000	0,000E+0
3016,505	48,253	70,000	0,000E+0
3016,505	48,253	70,000	0,000E+0
3018,670	48,380	70,000	0,000E+0
3018,670	48,380	70,000	0,000E+0
3020,837	48,187	70,000	0,000E+0
3020,837	48,187	70,000	0,000E+0
3020,837	48,187	70,000	0,000E+0
3023,002	48,164	70,000	0,000E+0
3023,002	48,164	70,000	0,000E+0
3025,169	48,199	70,000	0,000E+0
3025,169	48,199	70,000	0,000E+0
3027,336	48,094	70,000	0,000E+0
3027,336	48,094	70,000	0,000E+0
3029,503	48,154	70,000	0,000E+0
3029,503	48,154	70,000	0,000E+0
3031,669	48,181	70,000	0,000E+0
3031,669	48,181	70,000	0,000E+0
3033,838	48,216	70,000	0,000E+0
3033,838	48,216	70,000	0,000E+0
3036,003	48,291	70,000	0,000E+0
3036,003	48,291	70,000	0,000E+0
3036,003	48,291	70,000	0,000E+0
3038,170	48,439	70,000	0,000E+0
3038,170	48,439	70,000	0,000E+0
3040,335	48,360	70,000	0,000E+0
3040,335	48,360	70,000	0,000E+0
3042,502	48,340	70,000	0,000E+0
3042,502	48,340	70,000	0,000E+0
3044,666	48,302	70,000	0,000E+0
3044,666	48,302	70,000	0,000E+0
3046,833	48,310	70,000	0,000E+0
3046,833	48,310	70,000	0,000E+0
3049,000	48,379	70,000	0,000E+0
3049,000	48,379	70,000	0,000E+0
3049,000	48,379	70,000	0,000E+0
3051,165	48,437	70,000	0,000E+0
3051,165	48,437	70,000	0,000E+0
3053,332	48,357	70,000	0,000E+0
3053,332	48,357	70,000	0,000E+0
3055,498	48,292	70,000	0,000E+0
3055,498	48,292	70,000	0,000E+0
3057,663	48,419	70,000	0,000E+0
3057,663	48,419	70,000	0,000E+0
3059,828	48,457	70,000	0,000E+0
3059,828	48,457	70,000	0,000E+0
3061,995	48,412	70,000	0,000E+0
3061,995	48,412	70,000	0,000E+0
3061,995	48,412	70,000	0,000E+0
3064,160	48,428	70,000	0,000E+0
3064,160	48,428	70,000	0,000E+0
3066,327	48,522	70,000	0,000E+0
3066,327	48,522	70,000	0,000E+0
3068,495	48,571	70,000	0,000E+0
3068,495	48,571	70,000	0,000E+0
3070,662	48,633	70,000	0,000E+0
3070,662	48,633	70,000	0,000E+0
3072,831	48,568	70,000	0,000E+0
3072,831	48,568	70,000	0,000E+0
3074,998	48,548	70,000	0,000E+0
3074,998	48,548	70,000	0,000E+0
3074,998	48,548	70,000	0,000E+0
3077,165	48,504	70,000	0,000E+0
3077,165	48,504	70,000	0,000E+0
3079,331	48,533	70,000	0,000E+0
3079,331	48,533	70,000	0,000E+0
3081,496	48,546	70,000	0,000E+0
3081,496	48,546	70,000	0,000E+0
3083,663	48,553	70,000	0,000E+0
3083,663	48,553	70,000	0,000E+0
3085,830	48,593	70,000	0,000E+0
3085,830	48,593	70,000	0,000E+0
3087,995	48,735	70,000	0,000E+0
3087,995	48,735	70,000	0,000E+0
3087,995	48,735	70,000	0,000E+0
3090,162	48,665	70,000	0,000E+0
3090,162	48,665	70,000	0,000E+0
3092,327	48,588	70,000	0,000E+0
3092,327	48,588	70,000	0,000E+0
3094,493	48,444	70,000	0,000E+0
3094,493	48,444	70,000	0,000E+0
3096,660	48,374	70,000	0,000E+0
3096,660	48,374	70,000	0,000E+0
3098,827	48,427	70,000	0,000E+0
3098,827	48,427	70,000	0,000E+0
3100,994	48,493	70,000	0,000E+0
3100,994	48,493	70,000	0,000E+0
3100,994	48,493	70,000	0,000E+0
3103,159	48,573	70,000	0,000E+0
3103,159	48,573	70,000	0,000E+0
3105,326	48,628	70,000	0,000E+0
3105,326	48,628	70,000	0,000E+0
3107,494	48,777	70,000	0,000E+0
3107,494	48,777	70,000	0,000E+0
3109,661	48,847	70,000	0,000E+0
3109,661	48,847	70,000	0,000E+0
3111,828	48,814	70,000	0,000E+0
3111,828	48,814	70,000	0,000E+0
3113,993	48,869	70,000	0,000E+0
3113,993	48,869	70,000	0,000E+0
3113,993	48,869	70,000	0,000E+0
3116,162	48,921	70,000	0,000E+0
3116,162	48,921	70,000	0,000E+0
3118,329	48,884	70,000	0,000E+0
3118,329	48,884	70,000	0,000E+0
3120,491	48,804	70,000	0,000E+0
3120,491	48,804	70,000	0,000E+0
3122,658	48,930	70,000	0,000E+0
3122,658	48,930	70,000	0,000E+0
3124,823	48,906	70,000	0,000E+0
3124,823	48,906	70,000	0,000E+0
3126,992	48,871	70,000	0,000E+0
3126,992	48,871	70,000	0,000E+0
3126,992	48,871	70,000	0,000E+0
3129,159	48,792	70,000	0,000E+0
3129,159	48,792	70,000	0,000E+0
3131,324	48,934	70,000	0,000E+0
3131,324	48,934	70,000	0,000E+0
3133,491	48,971	70,000	0,000E+0
3133,491	48,971	70,000	0,000E+0
3135,655	48,926	70,000	0,000E+0
3135,655	48,926	70,000	0,000E+0
3137,824	48,906	70,000	0,000E+0
3137,824	48,906	70,000	0,000E+0
3139,991	48,889	70,000	0,000E+0
3139,991	48,889	70,000	0,000E+0
3139,991	48,889	70,000	0,000E+0
3142,158	48,635	70,000	0,000E+0
3142,158	48,635	70,000	0,000E+0
3144,287	48,635	70,000	0,000E+0
3144,287	48,635	70,000	0,000E+0
3146,468	48,720	70,000	0,000E+0
3146,468	48,720	70,000	0,000E+0
3148,632	48,780	70,000	0,000E+0
3148,632	48,780	70,000	0,000E+0
3150,799	48,971	70,000	0,000E+0
3150,799	48,971	70,000	0,000E+0
3152,966	48,909	70,000	0,000E+0
3152,966	48,909	70,000	0,000E+0
3152,966	48,909	70,000	0,000E+0
3155,131	48,812	70,000	0,000E+0
3155,131	48,812	70,000	0,000E+0
3157,296	48,703	70,000	0,000E+0
3157,296	48,703	70,000	0,000E+0
3159,461	48,790	70,000	0,000E+0
3159,461	48,790	70,000	0,000E+0
3161,630	48,921	70,000	0,000E+0
3161,630	48,921	70,000	0,000E+0
3163,794	49,045	70,000	0,000E+0
3163,794	49,045	70,000	0,000E+0
3165,961	48,998	70,000	0,000E+0
3165,961	48,998	70,000	0,000E+0
3165,961	48,998	70,000	0,000E+0
3168,130	48,969	70,000	0,000E+0
3168,130	48,969	70,000	0,000E+0
3170,297	48,979	70,000	0,000E+0
3170,297	48,979	70,000	0,000E+0
3172,464	49,075	70,000	0,000E+0
3172,464	49,075	70,000	0,000E+0
3174,629	49,145	70,000	0,000E+0
3174,629	49,145	70,000	0,000E+0
3176,795	49,073	70,000	0,000E+0
3176,795	49,073	70,000	0,000E+0
3178,960	48,981	70,000	0,000E+0
3178,960	48,981	70,000	0,000E+0
3178,960	48,981	70,000	0,000E+0
3181,127	49,103	70,000	0,000E+0
3181,127	49,103	70,000	0,000E+0
3183,294	49,038	70,000	0,000E+0
3183,294	49,038	70,000	0,000E+0
3185,463	49,115	70,000	0,000E+0
3185,463	49,115	70,000	0,000E+0
3187,632	49,092	70,000	0,000E+0
3187,632	49,092	70,000	0,000E+0
3189,798	49,170	70,000	0,000E+0
3189,798	49,170	70,000	0,000E+0
3191,965	49,235	70,000	0,000E+0
3191,965	49,235	70,000	0,000E+0
3191,965	49,235	70,000	0,000E+0
3194,130	49,325	70,000	0,000E+0
3194,130	49,325	70,000	0,000E+0
3196,299	49,262	70,000	0,000E+0
3196,299	49,262	70,000	0,000E+0
3198,464	49,235	70,000	0,000E+0
3198,464	49,235	70,000	0,000E+0
3200,629	49,269	70,000	0,000E+0
3200,629	49,269	70,000	0,000E+0
3202,796	49,408	70,000	0,000E+0
3202,796	49,408	70,000	0,000E+0
3204,962	49,408	70,000	0,000E+0
3204,962	49,408	70,000	0,000E+0
3204,962	49,408	70,000	0,000E+0
3207,131	49,306	70,000	0,000E+0
3207,131	49,306	70,000	0,000E+0
3209,296	49,433	70,000	0,000E+0
3209,296	49,433	70,000	0,000E+0
3211,463	49,461	70,000	0,000E+0
3211,463	49,461	70,000	0,000E+0
3213,630	49,452	70,000	0,000E+0
3213,630	49,452	70,000	0,000E+0
3215,797	49,504	70,000	0,000E+0
3215,797	49,504	70,000	0,000E+0
3217,963	49,504	70,000	0,000E+0
3217,963	49,504	70,000	0,000E+0
3217,963	49,504	70,000	0,000E+0
3220,132	49,566	70,000	0,000E+0
3220,132	49,566	70,000	0,000E+0
3222,299	49,481	70,000	0,000E+0
3222,299	49,481	70,000	0,000E+0
3224,464	49,416	70,000	0,000E+0
3224,464	49,416	70,000	0,000E+0
3226,631	49,470	70,000	0,000E+0
3226,631	49,470	70,000	0,000E+0
3228,800	49,620	70,000	0,000E+0
3228,800	49,620	70,000	0,000E+0
3230,969	49,759	70,000	0,000E+0
3230,969	49,759	70,000	0,000E+0
3230,969	49,759	70,000	0,000E+0
3233,134	49,886	70,000	0,000E+0
3233,134	49,886	70,000	0,000E+0
3235,300	49,817	70,000	0,000E+0
3235,300	49,817	70,000	0,000E+0
3237,465	49,814	70,000	0,000E+0
3237,465	49,814	70,000	0,000E+0
3239,632	49,837	70,000	0,000E+0
3239,632	49,837	70,000	0,000E+0
3241,797	49,842	70,000	0,000E+0
3241,797	49,842	70,000	0,000E+0
3243,964	49,867	70,000	0,000E+0
3243,964	49,867	70,000	0,000E+0
3243,964	49,867	70,000	0,000E+0
3246,129	49,847	70,000	0,000E+0
3246,129	49,847	70,000	0,000E+0
3248,293	49,842	70,000	0,000E+0
3248,293	49,842	70,000	0,000E+0
3250,460	49,897	70,000	0,000E+0
3250,460	49,897	70,000	0,000E+0
3252,627	49,718	70,000	0,000E+0
3252,627	49,718	70,000	0,000E+0
3254,794	49,795	70,000	0,000E+0
3254,794	49,795	70,000	0,000E+0
3256,963	49,974	70,000	0,000E+0
3256,963	49,974	70,000	0,000E+0
3256,963	49,974	70,000	0,000E+0
3259,128	49,914	70,000	0,000E+0
3259,128	49,914	70,000	0,000E+0
3261,295	49,829	70,000	0,000E+0
3261,295	49,829	70,000	0,000E+0
3263,464	49,797	70,000	0,000E+0
3263,464	49,797	70,000	0,000E+0
3265,628	49,756	70,000	0,000E+0
3265,628	49,756	70,000	0,000E+0
3267,796	49,770	70,000	0,000E+0
3267,796	49,770	70,000	0,000E+0
3269,962	49,775	70,000	0,000E+0
3269,962	49,775	70,000	0,000E+0
3269,962	49,775	70,000	0,000E+0
3272,131	49,795	70,000	0,000E+0
3272,131	49,795	70,000	0,000E+0
3274,296	49,753	70,000	0,000E+0
3274,296	49,753	70,000	0,000E+0
3276,463	49,760	70,000	0,000E+0
3276,463	49,760	70,000	0,000E+0
3278,630	49,708	70,000	0,000E+0
3278,630	49,708	70,000	0,000E+0
3280,794	49,670	70,000	0,000E+0
3280,794	49,670	70,000	0,000E+0
3282,961	49,926	70,000	0,000E+0
3282,961	49,926	70,000	0,000E+0
3282,961	49,926	70,000	0,000E+0
3285,126	49,973	70,000	0,000E+0
3285,126	49,973	70,000	0,000E+0
3287,295	49,881	70,000	0,000E+0
3287,295	49,881	70,000	0,000E+0
3289,464	49,901	70,000	0,000E+0
3289,464	49,901	70,000	0,000E+0
3291,627	49,978	70,000	0,000E+0
3291,627	49,978	70,000	0,000E+0
3293,794	50,020	70,000	0,000E+0
3293,794	50,020	70,000	0,000E+0
3295,959	50,018	70,000	0,000E+0
3295,959	50,018	70,000	0,000E+0
3295,959	50,018	70,000	0,000E+0
3298,125	50,011	70,000	0,000E+0
3298,125	50,011	70,000	0,000E+0
3300,292	49,983	70,000	0,000E+0
3300,292	49,983	70,000	0,000E+0
3302,459	50,035	70,000	0,000E+0
3302,459	50,035	70,000	0,000E+0
3304,626	49,963	70,000	0,000E+0
3304,626	49,963	70,000	0,000E+0
3306,792	50,030	70,000	0,000E+0
3306,792	50,030	70,000	0,000E+0
3308,959	49,918	70,000	0,000E+0
3308,959	49,918	70,000	0,000E+0
3308,959	49,918	70,000	0,000E+0
3311,128	49,896	70,000	0,000E+0
3311,128	49,896	70,000	0,000E+0
3313,297	49,801	70,000	0,000E+0
3313,297	49,801	70,000	0,000E+0
3315,465	49,844	70,000	0,000E+0
3315,465	49,844	70,000	0,000E+0
3317,634	49,951	70,000	0,000E+0
3317,634	49,951	70,000	0,000E+0
3319,801	49,918	70,000	0,000E+0
3319,801	49,918	70,000	0,000E+0
3321,966	50,020	70,000	0,000E+0
3321,966	50,020	70,000	0,000E+0
3321,966	50,020	70,000	0,000E+0
3324,133	50,127	70,000	0,000E+0
3324,133	50,127	70,000	0,000E+0
3326,299	50,075	70,000	0,000E+0
3326,299	50,075	70,000	0,000E+0
3328,466	50,132	70,000	0,000E+0
3328,466	50,132	70,000	0,000E+0
3330,633	50,194	70,000	0,000E+0
3330,633	50,194	70,000	0,000E+0
3332,800	50,147	70,000	0,000E+0
3332,800	50,147	70,000	0,000E+0
3334,964	50,216	70,000	0,000E+0
3334,964	50,216	70,000	0,000E+0
3334,964	50,216	70,000	0,000E+0
3337,133	50,256	70,000	0,000E+0
3337,133	50,256	70,000	0,000E+0
3339,300	50,189	70,000	0,000E+0
3339,300	50,189	70,000	0,000E+0
3341,467	50,070	70,000	0,000E+0
3341,467	50,070	70,000	0,000E+0
3343,633	50,077	70,000	0,000E+0
3343,633	50,077	70,000	0,000E+0
3345,798	50,191	70,000	0,000E+0
3345,798	50,191	70,000	0,000E+0
3347,967	50,360	70,000	0,000E+0
3347,967	50,360	70,000	0,000E+0
3347,967	50,360	70,000	0,000E+0
3350,136	50,273	70,000	0,000E+0
3350,136	50,273	70,000	0,000E+0
3352,300	50,325	70,000	0,000E+0
3352,300	50,325	70,000	0,000E+0
3354,469	50,231	70,000	0,000E+0
3354,469	50,231	70,000	0,000E+0
3356,638	50,390	70,000	0,000E+0
3356,638	50,390	70,000	0,000E+0
3358,805	50,371	70,000	0,000E+0
3358,805	50,371	70,000	0,000E+0
3360,972	50,462	70,000	0,000E+0
3360,972	50,462	70,000	0,000E+0
3360,972	50,462	70,000	0,000E+0
3363,136	50,460	70,000	0,000E+0
3363,136	50,460	70,000	0,000E+0
3365,303	50,488	70,000	0,000E+0
3365,303	50,488	70,000	0,000E+0
3367,472	50,458	70,000	0,000E+0
3367,472	50,458	70,000	0,000E+0
3369,635	50,527	70,000	0,000E+0
3369,635	50,527	70,000	0,000E+0
3371,800	50,500	70,000	0,000E+0
3371,800	50,500	70,000	0,000E+0
3373,966	50,445	70,000	0,000E+0
3373,966	50,445	70,000	0,000E+0
3373,966	50,445	70,000	0,000E+0
3376,131	50,306	70,000	0,000E+0
3376,131	50,306	70,000	0,000E+0
3378,300	50,475	70,000	0,000E+0
3378,300	50,475	70,000	0,000E+0
3380,465	50,564	70,000	0,000E+0
3380,465	50,564	70,000	0,000E+0
3382,632	50,726	70,000	0,000E+0
3382,632	50,726	70,000	0,000E+0
3384,794	50,619	70,000	0,000E+0
3384,794	50,619	70,000	0,000E+0
3386,959	50,522	70,000	0,000E+0
3386,959	50,522	70,000	0,000E+0
3386,959	50,522	70,000	0,000E+0
3389,124	50,430	70,000	0,000E+0
3389,124	50,430	70,000	0,000E+0
3391,291	50,398	70,000	0,000E+0
3391,291	50,398	70,000	0,000E+0
3393,458	50,465	70,000	0,000E+0
3393,458	50,465	70,000	0,000E+0
3395,622	50,388	70,000	0,000E+0
3395,622	50,388	70,000	0,000E+0
3397,789	50,490	70,000	0,000E+0
3397,789	50,490	70,000	0,000E+0
3399,954	50,516	70,000	0,000E+0
3399,954	50,516	70,000	0,000E+0
3399,954	50,516	70,000	0,000E+0
3402,121	50,593	70,000	0,000E+0
3402,121	50,593	70,000	0,000E+0
3404,288	50,513	70,000	0,000E+0
3404,288	50,513	70,000	0,000E+0
3406,453	50,384	70,000	0,000E+0
3406,453	50,384	70,000	0,000E+0
3408,615	50,433	70,000	0,000E+0
3408,615	50,433	70,000	0,000E+0
3410,780	50,448	70,000	0,000E+0
3410,780	50,448	70,000	0,000E+0
3412,947	50,553	70,000	0,000E+0
3412,947	50,553	70,000	0,000E+0
3415,114	50,525	70,000	0,000E+0
3415,114	50,525	70,000	0,000E+0
3415,114	50,525	70,000	0,000E+0
3417,280	50,622	70,000	0,000E+0
3417,280	50,622	70,000	0,000E+0
3419,447	50,540	70,000	0,000E+0
3419,447	50,540	70,000	0,000E+0
3421,614	50,570	70,000	0,000E+0
3421,614	50,570	70,000	0,000E+0
3423,781	50,637	70,000	0,000E+0
3423,781	50,637	70,000	0,000E+0
3425,948	50,712	70,000	0,000E+0
3425,948	50,712	70,000	0,000E+0
3428,112	50,878	70,000	0,000E+0
3428,112	50,878	70,000	0,000E+0
3428,112	50,878	70,000	0,000E+0
3430,279	50,776	70,000	0,000E+0
3430,279	50,776	70,000	0,000E+0
3432,446	50,679	70,000	0,000E+0
3432,446	50,679	70,000	0,000E+0
3434,611	50,572	70,000	0,000E+0
3434,611	50,572	70,000	0,000E+0
3436,778	50,666	70,000	0,000E+0
3436,778	50,666	70,000	0,000E+0
3438,944	50,617	70,000	0,000E+0
3438,944	50,617	70,000	0,000E+0
3441,113	50,632	70,000	0,000E+0
3441,113	50,632	70,000	0,000E+0
3441,113	50,632	70,000	0,000E+0
3443,280	50,671	70,000	0,000E+0
3443,280	50,671	70,000	0,000E+0
3445,447	50,878	70,000	0,000E+0
3445,447	50,878	70,000	0,000E+0
3447,612	51,007	70,000	0,000E+0
3447,612	51,007	70,000	0,000E+0
3449,778	50,972	70,000	0,000E+0
3449,778	50,972	70,000	0,000E+0
3451,947	51,010	70,000	0,000E+0
3451,947	51,010	70,000	0,000E+0
3454,114	51,055	70,000	0,000E+0
3454,114	51,055	70,000	0,000E+0
3454,114	51,055	70,000	0,000E+0
3456,281	51,069	70,000	0,000E+0
3456,281	51,069	70,000	0,000E+0
3458,445	50,991	70,000	0,000E+0
3458,445	50,991	70,000	0,000E+0
3460,614	51,014	70,000	0,000E+0
3460,614	51,014	70,000	0,000E+0
3462,781	51,043	70,000	0,000E+0
3462,781	51,043	70,000	0,000E+0
3464,952	51,132	70,000	0,000E+0
3464,952	51,132	70,000	0,000E+0
3467,117	51,142	70,000	0,000E+0
3467,117	51,142	70,000	0,000E+0
3467,117	51,142	70,000	0,000E+0
3469,283	51,040	70,000	0,000E+0
3469,283	51,040	70,000	0,000E+0
3471,450	51,023	70,000	0,000E+0
3471,450	51,023	70,000	0,000E+0
3473,619	51,155	70,000	0,000E+0
3473,619	51,155	70,000	0,000E+0
3475,786	51,172	70,000	0,000E+0
3475,786	51,172	70,000	0,000E+0
3477,955	51,103	70,000	0,000E+0
3477,955	51,103	70,000	0,000E+0
3480,122	51,033	70,000	0,000E+0
3480,122	51,033	70,000	0,000E+0
3480,122	51,033	70,000	0,000E+0
3482,286	51,090	70,000	0,000E+0
3482,286	51,090	70,000	0,000E+0
3484,453	51,085	70,000	0,000E+0
3484,453	51,085	70,000	0,000E+0
3486,614	51,100	70,000	0,000E+0
3486,614	51,100	70,000	0,000E+0
3488,781	51,212	70,000	0,000E+0
3488,781	51,212	70,000	0,000E+0
3490,948	51,219	70,000	0,000E+0
3490,948	51,219	70,000	0,000E+0
3493,114	51,197	70,000	0,000E+0
3493,114	51,197	70,000	0,000E+0
3493,114	51,197	70,000	0,000E+0
3495,281	51,206	70,000	0,000E+0
3495,281	51,206	70,000	0,000E+0
3497,448	51,248	70,000	0,000E+0
3497,448	51,248	70,000	0,000E+0
3499,613	51,246	70,000	0,000E+0
3499,613	51,246	70,000	0,000E+0
3501,782	51,375	70,000	0,000E+0
3501,782	51,375	70,000	0,000E+0
3503,948	51,488	70,000	0,000E+0
3503,948	51,488	70,000	0,000E+0
3506,113	51,432	70,000	0,000E+0
3506,113	51,432	70,000	0,000E+0
3506,113	51,432	70,000	0,000E+0
3508,280	51,331	70,000	0,000E+0
3508,280	51,331	70,000	0,000E+0
3510,447	51,457	70,000	0,000E+0
3510,447	51,457	70,000	0,000E+0
3512,614	51,412	70,000	0,000E+0
3512,614	51,412	70,000	0,000E+0
3514,782	51,385	70,000	0,000E+0
3514,782	51,385	70,000	0,000E+0
3516,949	51,422	70,000	0,000E+0
3516,949	51,422	70,000	0,000E+0
3519,118	51,495	70,000	0,000E+0
3519,118	51,495	70,000	0,000E+0
3519,118	51,495	70,000	0,000E+0
3521,285	51,527	70,000	0,000E+0
3521,285	51,527	70,000	0,000E+0
3523,452	51,475	70,000	0,000E+0
3523,452	51,475	70,000	0,000E+0
3525,619	51,465	70,000	0,000E+0
3525,619	51,465	70,000	0,000E+0
3527,783	51,557	70,000	0,000E+0
3527,783	51,557	70,000	0,000E+0
3529,952	51,452	70,000	0,000E+0
3529,952	51,452	70,000	0,000E+0
3532,119	51,403	70,000	0,000E+0
3532,119	51,403	70,000	0,000E+0
3532,119	51,403	70,000	0,000E+0
3534,286	51,410	70,000	0,000E+0
3534,286	51,410	70,000	0,000E+0
3536,451	51,373	70,000	0,000E+0
3536,451	51,373	70,000	0,000E+0
3538,618	51,403	70,000	0,000E+0
3538,618	51,403	70,000	0,000E+0
3540,782	51,452	70,000	0,000E+0
3540,782	51,452	70,000	0,000E+0
3542,949	51,489	70,000	0,000E+0
3542,949	51,489	70,000	0,000E+0
3545,114	51,447	70,000	0,000E+0
3545,114	51,447	70,000	0,000E+0
3545,114	51,447	70,000	0,000E+0
3547,283	51,388	70,000	0,000E+0
3547,283	51,388	70,000	0,000E+0
3549,450	51,370	70,000	0,000E+0
3549,450	51,370	70,000	0,000E+0
3551,619	51,381	70,000	0,000E+0
3551,619	51,381	70,000	0,000E+0
3553,787	51,436	70,000	0,000E+0
3553,787	51,436	70,000	0,000E+0
3555,954	51,502	70,000	0,000E+0
3555,954	51,502	70,000	0,000E+0
3558,121	51,594	70,000	0,000E+0
3558,121	51,594	70,000	0,000E+0
3558,121	51,594	70,000	0,000E+0
3560,288	51,696	70,000	0,000E+0
3560,288	51,696	70,000	0,000E+0
3562,453	51,666	70,000	0,000E+0
3562,453	51,666	70,000	0,000E+0
3564,621	51,648	70,000	0,000E+0
3564,621	51,648	70,000	0,000E+0
3566,788	51,708	70,000	0,000E+0
3566,788	51,708	70,000	0,000E+0
3568,953	51,800	70,000	0,000E+0
3568,953	51,800	70,000	0,000E+0
3571,118	51,706	70,000	0,000E+0
3571,118	51,706	70,000	0,000E+0
3571,118	51,706	70,000	0,000E+0
3573,282	51,773	70,000	0,000E+0
3573,282	51,773	70,000	0,000E+0
3575,449	51,907	70,000	0,000E+0
3575,449	51,907	70,000	0,000E+0
3577,614	51,828	70,000	0,000E+0
3577,614	51,828	70,000	0,000E+0
3579,781	51,927	70,000	0,000E+0
3579,781	51,927	70,000	0,000E+0
3581,946	51,855	70,000	0,000E+0
3581,946	51,855	70,000	0,000E+0
3584,114	51,967	70,000	0,000E+0
3584,114	51,967	70,000	0,000E+0
3584,114	51,967	70,000	0,000E+0
3586,281	51,935	70,000	0,000E+0
3586,281	51,935	70,000	0,000E+0
3588,446	51,852	70,000	0,000E+0
3588,446	51,852	70,000	0,000E+0
3590,613	51,912	70,000	0,000E+0
3590,613	51,912	70,000	0,000E+0
3592,778	51,975	70,000	0,000E+0
3592,778	51,975	70,000	0,000E+0
3594,947	51,875	70,000	0,000E+0
3594,947	51,875	70,000	0,000E+0
3597,113	51,826	70,000	0,000E+0
3597,113	51,826	70,000	0,000E+0
3597,113	51,826	70,000	0,000E+0
3599,280	51,915	70,000	0,000E+0
3599,280	51,915	70,000	0,000E+0
3601,445	51,811	70,000	0,000E+0
3601,445	51,811	70,000	0,000E+0
3603,606	51,942	70,000	0,000E+0
3603,606	51,942	70,000	0,000E+0
3605,772	51,965	70,000	0,000E+0
3605,772	51,965	70,000	0,000E+0
3607,941	51,828	70,000	0,000E+0
3607,941	51,828	70,000	0,000E+0
3610,106	51,791	70,000	0,000E+0
3610,106	51,791	70,000	0,000E+0
3610,106	51,791	70,000	0,000E+0
3612,273	51,835	70,000	0,000E+0
3612,273	51,835	70,000	0,000E+0
3614,440	51,902	70,000	0,000E+0
3614,440	51,902	70,000	0,000E+0
3616,605	52,014	70,000	0,000E+0
3616,605	52,014	70,000	0,000E+0
3618,771	51,952	70,000	0,000E+0
3618,771	51,952	70,000	0,000E+0
3620,936	52,015	70,000	0,000E+0
3620,936	52,015	70,000	0,000E+0
3623,101	51,995	70,000	0,000E+0
3623,101	51,995	70,000	0,000E+0
3623,101	51,995	70,000	0,000E+0
3625,268	51,901	70,000	0,000E+0
3625,268	51,901	70,000	0,000E+0
3627,435	51,876	70,000	0,000E+0
3627,435	51,876	70,000	0,000E+0
3629,599	51,948	70,000	0,000E+0
3629,599	51,948	70,000	0,000E+0
3631,766	52,062	70,000	0,000E+0
3631,766	52,062	70,000	0,000E+0
3633,933	52,149	70,000	0,000E+0
3633,933	52,149	70,000	0,000E+0
3636,102	52,239	70,000	0,000E+0
3636,102	52,239	70,000	0,000E+0
3636,102	52,239	70,000	0,000E+0
3638,269	52,219	70,000	0,000E+0
3638,269	52,219	70,000	0,000E+0
3640,437	52,360	70,000	0,000E+0
3640,437	52,360	70,000	0,000E+0
3642,604	52,268	70,000	0,000E+0
3642,604	52,268	70,000	0,000E+0
3644,769	52,067	70,000	0,000E+0
3644,769	52,067	70,000	0,000E+0
3646,938	52,147	70,000	0,000E+0
3646,938	52,147	70,000	0,000E+0
3649,105	52,244	70,000	0,000E+0
3649,105	52,244	70,000	0,000E+0
3649,105	52,244	70,000	0,000E+0
3651,266	52,395	70,000	0,000E+0
3651,266	52,395	70,000	0,000E+0
3653,432	52,239	70,000	0,000E+0
3653,432	52,239	70,000	0,000E+0
3655,599	52,264	70,000	0,000E+0
3655,599	52,264	70,000	0,000E+0
3657,766	52,457	70,000	0,000E+0
3657,766	52,457	70,000	0,000E+0
3659,933	52,435	70,000	0,000E+0
3659,933	52,435	70,000	0,000E+0
3662,098	52,371	70,000	0,000E+0
3662,098	52,371	70,000	0,000E+0
3662,098	52,371	70,000	0,000E+0
3664,264	52,410	70,000	0,000E+0
3664,264	52,410	70,000	0,000E+0
3666,431	52,487	70,000	0,000E+0
3666,431	52,487	70,000	0,000E+0
3668,598	52,472	70,000	0,000E+0
3668,598	52,472	70,000	0,000E+0
3670,763	52,316	70,000	0,000E+0
3670,763	52,316	70,000	0,000E+0
3672,930	52,316	70,000	0,000E+0
3672,930	52,316	70,000	0,000E+0
3675,101	52,413	70,000	0,000E+0
3675,101	52,413	70,000	0,000E+0
3675,101	52,413	70,000	0,000E+0
3677,267	52,383	70,000	0,000E+0
3677,267	52,383	70,000	0,000E+0
3679,434	52,497	70,000	0,000E+0
3679,434	52,497	70,000	0,000E+0
3681,603	52,596	70,000	0,000E+0
3681,603	52,596	70,000	0,000E+0
3683,768	52,650	70,000	0,000E+0
3683,768	52,650	70,000	0,000E+0
3685,937	52,693	70,000	0,000E+0
3685,937	52,693	70,000	0,000E+0
3688,104	52,666	70,000	0,000E+0
3688,104	52,666	70,000	0,000E+0
3688,104	52,666	70,000	0,000E+0
3690,264	52,678	70,000	0,000E+0
3690,264	52,678	70,000	0,000E+0
3692,431	52,596	70,000	0,000E+0
3692,431	52,596	70,000	0,000E+0
3694,598	52,604	70,000	0,000E+0
3694,598	52,604	70,000	0,000E+0
3696,765	52,624	70,000	0,000E+0
3696,765	52,624	70,000	0,000E+0
3698,934	52,591	70,000	0,000E+0
3698,934	52,591	70,000	0,000E+0
3701,098	52,500	70,000	0,000E+0
3701,098	52,500	70,000	0,000E+0
3701,098	52,500	70,000	0,000E+0
3703,267	52,420	70,000	0,000E+0
3703,267	52,420	70,000	0,000E+0
3705,434	52,400	70,000	0,000E+0
3705,434	52,400	70,000	0,000E+0
3707,603	52,504	70,000	0,000E+0
3707,603	52,504	70,000	0,000E+0
3709,770	52,628	70,000	0,000E+0
3709,770	52,628	70,000	0,000E+0
3711,937	52,568	70,000	0,000E+0
3711,937	52,568	70,000	0,000E+0
3714,103	52,526	70,000	0,000E+0
3714,103	52,526	70,000	0,000E+0
3714,103	52,526	70,000	0,000E+0
3716,270	52,630	70,000	0,000E+0
3716,270	52,630	70,000	0,000E+0
3718,435	52,454	70,000	0,000E+0
3718,435	52,454	70,000	0,000E+0
3720,602	52,368	70,000	0,000E+0
3720,602	52,368	70,000	0,000E+0
3722,771	52,444	70,000	0,000E+0
3722,771	52,444	70,000	0,000E+0
3724,938	52,568	70,000	0,000E+0
3724,938	52,568	70,000	0,000E+0
3727,104	52,558	70,000	0,000E+0
3727,104	52,558	70,000	0,000E+0
3727,104	52,558	70,000	0,000E+0
3729,266	52,568	70,000	0,000E+0
3729,266	52,568	70,000	0,000E+0
3731,432	52,576	70,000	0,000E+0
3731,432	52,576	70,000	0,000E+0
3733,601	52,578	70,000	0,000E+0
3733,601	52,578	70,000	0,000E+0
3735,768	52,761	70,000	0,000E+0
3735,768	52,761	70,000	0,000E+0
3737,935	52,719	70,000	0,000E+0
3737,935	52,719	70,000	0,000E+0
3740,101	52,722	70,000	0,000E+0
3740,101	52,722	70,000	0,000E+0
3740,101	52,722	70,000	0,000E+0
3742,266	52,697	70,000	0,000E+0
3742,266	52,697	70,000	0,000E+0
3744,435	52,635	70,000	0,000E+0
3744,435	52,635	70,000	0,000E+0
3746,602	52,670	70,000	0,000E+0
3746,602	52,670	70,000	0,000E+0
3748,769	52,742	70,000	0,000E+0
3748,769	52,742	70,000	0,000E+0
3750,933	52,791	70,000	0,000E+0
3750,933	52,791	70,000	0,000E+0
3753,100	52,801	70,000	0,000E+0
3753,100	52,801	70,000	0,000E+0
3753,100	52,801	70,000	0,000E+0
3755,267	52,729	70,000	0,000E+0
3755,267	52,729	70,000	0,000E+0
3757,432	52,769	70,000	0,000E+0
3757,432	52,769	70,000	0,000E+0
3759,601	52,764	70,000	0,000E+0
3759,601	52,764	70,000	0,000E+0
3761,766	52,794	70,000	0,000E+0
3761,766	52,794	70,000	0,000E+0
3763,934	52,745	70,000	0,000E+0
3763,934	52,745	70,000	0,000E+0
3766,101	52,688	70,000	0,000E+0
3766,101	52,688	70,000	0,000E+0
3766,101	52,688	70,000	0,000E+0
3768,268	52,772	70,000	0,000E+0
3768,268	52,772	70,000	0,000E+0
3770,435	52,875	70,000	0,000E+0
3770,435	52,875	70,000	0,000E+0
3772,602	52,870	70,000	0,000E+0
3772,602	52,870	70,000	0,000E+0
3774,765	52,794	70,000	0,000E+0
3774,765	52,794	70,000	0,000E+0
3776,933	52,784	70,000	0,000E+0
3776,933	52,784	70,000	0,000E+0
3779,100	52,797	70,000	0,000E+0
3779,100	52,797	70,000	0,000E+0
3779,100	52,797	70,000	0,000E+0
3781,265	52,871	70,000	0,000E+0
3781,265	52,871	70,000	0,000E+0
3783,432	52,869	70,000	0,000E+0
3783,432	52,869	70,000	0,000E+0
3785,595	52,762	70,000	0,000E+0
3785,595	52,762	70,000	0,000E+0
3787,762	52,790	70,000	0,000E+0
3787,762	52,790	70,000	0,000E+0
3789,928	52,973	70,000	0,000E+0
3789,928	52,973	70,000	0,000E+0
3792,095	53,188	70,000	0,000E+0
3792,095	53,188	70,000	0,000E+0
3792,095	53,188	70,000	0,000E+0
3794,260	53,069	70,000	0,000E+0
3794,260	53,069	70,000	0,000E+0
3796,427	52,928	70,000	0,000E+0
3796,427	52,928	70,000	0,000E+0
3798,594	52,878	70,000	0,000E+0
3798,594	52,878	70,000	0,000E+0
3800,761	52,871	70,000	0,000E+0
3800,761	52,871	70,000	0,000E+0
3802,927	52,987	70,000	0,000E+0
3802,927	52,987	70,000	0,000E+0
3805,092	53,034	70,000	0,000E+0
3805,092	53,034	70,000	0,000E+0
3805,092	53,034	70,000	0,000E+0
3807,259	53,054	70,000	0,000E+0
3807,259	53,054	70,000	0,000E+0
3809,422	53,149	70,000	0,000E+0
3809,422	53,149	70,000	0,000E+0
3811,589	53,198	70,000	0,000E+0
3811,589	53,198	70,000	0,000E+0
3813,756	53,268	70,000	0,000E+0
3813,756	53,268	70,000	0,000E+0
3815,925	53,263	70,000	0,000E+0
3815,925	53,263	70,000	0,000E+0
3818,091	53,280	70,000	0,000E+0
3818,091	53,280	70,000	0,000E+0
3820,258	53,312	70,000	0,000E+0
3820,258	53,312	70,000	0,000E+0
3820,258	53,312	70,000	0,000E+0
3822,425	53,339	70,000	0,000E+0
3822,425	53,339	70,000	0,000E+0
3824,592	53,374	70,000	0,000E+0
3824,592	53,374	70,000	0,000E+0
3826,757	53,474	70,000	0,000E+0
3826,757	53,474	70,000	0,000E+0
3828,926	53,483	70,000	0,000E+0
3828,926	53,483	70,000	0,000E+0
3831,090	53,458	70,000	0,000E+0
3831,090	53,458	70,000	0,000E+0
3833,257	53,436	70,000	0,000E+0
3833,257	53,436	70,000	0,000E+0
3833,257	53,436	70,000	0,000E+0
3835,424	53,459	70,000	0,000E+0
3835,424	53,459	70,000	0,000E+0
3837,589	53,481	70,000	0,000E+0
3837,589	53,481	70,000	0,000E+0
3839,755	53,483	70,000	0,000E+0
3839,755	53,483	70,000	0,000E+0
3841,922	53,444	70,000	0,000E+0
3841,922	53,444	70,000	0,000E+0
3844,087	53,405	70,000	0,000E+0
3844,087	53,405	70,000	0,000E+0
3846,254	53,355	70,000	0,000E+0
3846,254	53,355	70,000	0,000E+0
3846,254	53,355	70,000	0,000E+0
3848,423	53,476	70,000	0,000E+0
3848,423	53,476	70,000	0,000E+0
3850,587	53,417	70,000	0,000E+0
3850,587	53,417	70,000	0,000E+0
3852,754	53,330	70,000	0,000E+0
3852,754	53,330	70,000	0,000E+0
3854,921	53,328	70,000	0,000E+0
3854,921	53,328	70,000	0,000E+0
3857,088	53,336	70,000	0,000E+0
3857,088	53,336	70,000	0,000E+0
3859,253	53,417	70,000	0,000E+0
3859,253	53,417	70,000	0,000E+0
3859,253	53,417	70,000	0,000E+0
3861,417	53,437	70,000	0,000E+0
3861,417	53,437	70,000	0,000E+0
3863,584	53,521	70,000	0,000E+0
3863,584	53,521	70,000	0,000E+0
3865,751	53,558	70,000	0,000E+0
3865,751	53,558	70,000	0,000E+0
3867,916	53,501	70,000	0,000E+0
3867,916	53,501	70,000	0,000E+0
3870,081	53,556	70,000	0,000E+0
3870,081	53,556	70,000	0,000E+0
3872,247	53,519	70,000	0,000E+0
3872,247	53,519	70,000	0,000E+0
3872,247	53,519	70,000	0,000E+0
3874,416	53,450	70,000	0,000E+0
3874,416	53,450	70,000	0,000E+0
3876,585	53,454	70,000	0,000E+0
3876,585	53,454	70,000	0,000E+0
3878,752	53,590	70,000	0,000E+0
3878,752	53,590	70,000	0,000E+0
3880,921	53,563	70,000	0,000E+0
3880,921	53,563	70,000	0,000E+0
3883,087	53,484	70,000	0,000E+0
3883,087	53,484	70,000	0,000E+0
3885,256	53,494	70,000	0,000E+0
3885,256	53,494	70,000	0,000E+0
3885,256	53,494	70,000	0,000E+0
3887,425	53,558	70,000	0,000E+0
3887,425	53,558	70,000	0,000E+0
3889,594	53,494	70,000	0,000E+0
3889,594	53,494	70,000	0,000E+0
3891,761	53,489	70,000	0,000E+0
3891,761	53,489	70,000	0,000E+0
3893,927	53,405	70,000	0,000E+0
3893,927	53,405	70,000	0,000E+0
3896,092	53,553	70,000	0,000E+0
3896,092	53,553	70,000	0,000E+0
3898,260	53,647	70,000	0,000E+0
3898,260	53,647	70,000	0,000E+0
3898,260	53,647	70,000	0,000E+0
3900,424	53,783	70,000	0,000E+0
3900,424	53,783	70,000	0,000E+0
3902,589	53,892	70,000	0,000E+0
3902,589	53,892	70,000	0,000E+0
3904,756	53,794	70,000	0,000E+0
3904,756	53,794	70,000	0,000E+0
3906,922	53,843	70,000	0,000E+0
3906,922	53,843	70,000	0,000E+0
3909,087	53,826	70,000	0,000E+0
3909,087	53,826	70,000	0,000E+0
3911,256	53,714	70,000	0,000E+0
3911,256	53,714	70,000	0,000E+0
3911,256	53,714	70,000	0,000E+0
3913,419	53,748	70,000	0,000E+0
3913,419	53,748	70,000	0,000E+0
3915,586	53,711	70,000	0,000E+0
3915,586	53,711	70,000	0,000E+0
3917,750	53,825	70,000	0,000E+0
3917,750	53,825	70,000	0,000E+0
3919,915	53,879	70,000	0,000E+0
3919,915	53,879	70,000	0,000E+0
3922,084	53,815	70,000	0,000E+0
3922,084	53,815	70,000	0,000E+0
3924,251	53,810	70,000	0,000E+0
3924,251	53,810	70,000	0,000E+0
3924,251	53,810	70,000	0,000E+0
3926,420	53,835	70,000	0,000E+0
3926,420	53,835	70,000	0,000E+0
3928,590	53,810	70,000	0,000E+0
3928,590	53,810	70,000	0,000E+0
3930,757	53,706	70,000	0,000E+0
3930,757	53,706	70,000	0,000E+0
3932,926	53,704	70,000	0,000E+0
3932,926	53,704	70,000	0,000E+0
3935,091	53,751	70,000	0,000E+0
3935,091	53,751	70,000	0,000E+0
3937,258	53,890	70,000	0,000E+0
3937,258	53,890	70,000	0,000E+0
3937,258	53,890	70,000	0,000E+0
3939,421	53,939	70,000	0,000E+0
3939,421	53,939	70,000	0,000E+0
3941,586	53,924	70,000	0,000E+0
3941,586	53,924	70,000	0,000E+0
3943,749	53,971	70,000	0,000E+0
3943,749	53,971	70,000	0,000E+0
3945,915	53,966	70,000	0,000E+0
3945,915	53,966	70,000	0,000E+0
3948,080	54,036	70,000	0,000E+0
3948,080	54,036	70,000	0,000E+0
3950,247	53,964	70,000	0,000E+0
3950,247	53,964	70,000	0,000E+0
3950,247	53,964	70,000	0,000E+0
3952,414	53,890	70,000	0,000E+0
3952,414	53,890	70,000	0,000E+0
3954,579	53,761	70,000	0,000E+0
3954,579	53,761	70,000	0,000E+0
3956,747	53,856	70,000	0,000E+0
3956,747	53,856	70,000	0,000E+0
3958,910	53,890	70,000	0,000E+0
3958,910	53,890	70,000	0,000E+0
3961,077	53,994	70,000	0,000E+0
3961,077	53,994	70,000	0,000E+0
3963,246	54,037	70,000	0,000E+0
3963,246	54,037	70,000	0,000E+0
3963,246	54,037	70,000	0,000E+0
3965,411	53,954	70,000	0,000E+0
3965,411	53,954	70,000	0,000E+0
3967,577	53,996	70,000	0,000E+0
3967,577	53,996	70,000	0,000E+0
3969,742	54,051	70,000	0,000E+0
3969,742	54,051	70,000	0,000E+0
3971,909	54,113	70,000	0,000E+0
3971,909	54,113	70,000	0,000E+0
3974,076	54,056	70,000	0,000E+0
3974,076	54,056	70,000	0,000E+0
3976,241	54,061	70,000	0,000E+0
3976,241	54,061	70,000	0,000E+0
3976,241	54,061	70,000	0,000E+0
3978,407	54,106	70,000	0,000E+0
3978,407	54,106	70,000	0,000E+0
3980,574	54,177	70,000	0,000E+0
3980,574	54,177	70,000	0,000E+0
3982,739	54,101	70,000	0,000E+0
3982,739	54,101	70,000	0,000E+0
3984,906	54,212	70,000	0,000E+0
3984,906	54,212	70,000	0,000E+0
3987,075	54,193	70,000	0,000E+0
3987,075	54,193	70,000	0,000E+0
3989,240	54,252	70,000	0,000E+0
3989,240	54,252	70,000	0,000E+0
3989,240	54,252	70,000	0,000E+0
3991,406	54,440	70,000	0,000E+0
3991,406	54,440	70,000	0,000E+0
3993,571	54,507	70,000	0,000E+0
3993,571	54,507	70,000	0,000E+0
3995,738	54,379	70,000	0,000E+0
3995,738	54,379	70,000	0,000E+0
3997,907	54,274	70,000	0,000E+0
3997,907	54,274	70,000	0,000E+0
4000,072	54,129	70,000	0,000E+0
4000,072	54,129	70,000	0,000E+0
4002,241	54,170	70,000	0,000E+0
4002,241	54,170	70,000	0,000E+0
4002,241	54,170	70,000	0,000E+0
4004,405	54,215	70,000	0,000E+0
4004,405	54,215	70,000	0,000E+0
4006,572	54,267	70,000	0,000E+0
4006,572	54,267	70,000	0,000E+0
4008,741	54,353	70,000	0,000E+0
4008,741	54,353	70,000	0,000E+0
4010,906	54,324	70,000	0,000E+0
4010,906	54,324	70,000	0,000E+0
4013,073	54,270	70,000	0,000E+0
4013,073	54,270	70,000	0,000E+0
4015,240	54,369	70,000	0,000E+0
4015,240	54,369	70,000	0,000E+0
4015,240	54,369	70,000	0,000E+0
4017,404	54,366	70,000	0,000E+0
4017,404	54,366	70,000	0,000E+0
4019,571	54,297	70,000	0,000E+0
4019,571	54,297	70,000	0,000E+0
4021,736	54,324	70,000	0,000E+0
4021,736	54,324	70,000	0,000E+0
4023,905	54,280	70,000	0,000E+0
4023,905	54,280	70,000	0,000E+0
4026,072	54,265	70,000	0,000E+0
4026,072	54,265	70,000	0,000E+0
4028,237	54,287	70,000	0,000E+0
4028,237	54,287	70,000	0,000E+0
4028,237	54,287	70,000	0,000E+0
4030,405	54,388	70,000	0,000E+0
4030,405	54,388	70,000	0,000E+0
4032,570	54,364	70,000	0,000E+0
4032,570	54,364	70,000	0,000E+0
4034,737	54,420	70,000	0,000E+0
4034,737	54,420	70,000	0,000E+0
4036,904	54,304	70,000	0,000E+0
4036,904	54,304	70,000	0,000E+0
4039,071	54,410	70,000	0,000E+0
4039,071	54,410	70,000	0,000E+0
4041,238	54,451	70,000	0,000E+0
4041,238	54,451	70,000	0,000E+0
4041,238	54,451	70,000	0,000E+0
4043,404	54,502	70,000	0,000E+0
4043,404	54,502	70,000	0,000E+0
4045,573	54,471	70,000	0,000E+0
4045,573	54,471	70,000	0,000E+0
4047,744	54,367	70,000	0,000E+0
4047,744	54,367	70,000	0,000E+0
4049,913	54,377	70,000	0,000E+0
4049,913	54,377	70,000	0,000E+0
4052,082	54,386	70,000	0,000E+0
4052,082	54,386	70,000	0,000E+0
4054,247	54,443	70,000	0,000E+0
4054,247	54,443	70,000	0,000E+0
4054,247	54,443	70,000	0,000E+0
4056,414	54,517	70,000	0,000E+0
4056,414	54,517	70,000	0,000E+0
4058,582	54,611	70,000	0,000E+0
4058,582	54,611	70,000	0,000E+0
4060,749	54,757	70,000	0,000E+0
4060,749	54,757	70,000	0,000E+0
4062,916	54,700	70,000	0,000E+0
4062,916	54,700	70,000	0,000E+0
4065,079	54,653	70,000	0,000E+0
4065,079	54,653	70,000	0,000E+0
4067,248	54,596	70,000	0,000E+0
4067,248	54,596	70,000	0,000E+0
4067,248	54,596	70,000	0,000E+0
4069,415	54,535	70,000	0,000E+0
4069,415	54,535	70,000	0,000E+0
4071,582	54,566	70,000	0,000E+0
4071,582	54,566	70,000	0,000E+0
4073,748	54,693	70,000	0,000E+0
4073,748	54,693	70,000	0,000E+0
4075,913	54,715	70,000	0,000E+0
4075,913	54,715	70,000	0,000E+0
4078,080	54,789	70,000	0,000E+0
4078,080	54,789	70,000	0,000E+0
4080,249	54,846	70,000	0,000E+0
4080,249	54,846	70,000	0,000E+0
4080,249	54,846	70,000	0,000E+0
4082,414	54,844	70,000	0,000E+0
4082,414	54,844	70,000	0,000E+0
4084,581	54,817	70,000	0,000E+0
4084,581	54,817	70,000	0,000E+0
4086,746	54,711	70,000	0,000E+0
4086,746	54,711	70,000	0,000E+0
4088,910	54,612	70,000	0,000E+0
4088,910	54,612	70,000	0,000E+0
4091,079	54,587	70,000	0,000E+0
4091,079	54,587	70,000	0,000E+0
4093,246	54,607	70,000	0,000E+0
4093,246	54,607	70,000	0,000E+0
4093,246	54,607	70,000	0,000E+0
4095,413	54,773	70,000	0,000E+0
4095,413	54,773	70,000	0,000E+0
4097,579	54,688	70,000	0,000E+0
4097,579	54,688	70,000	0,000E+0
4099,744	54,639	70,000	0,000E+0
4099,744	54,639	70,000	0,000E+0
4101,913	54,676	70,000	0,000E+0
4101,913	54,676	70,000	0,000E+0
4104,082	54,750	70,000	0,000E+0
4104,082	54,750	70,000	0,000E+0
4106,247	54,798	70,000	0,000E+0
4106,247	54,798	70,000	0,000E+0
4106,247	54,798	70,000	0,000E+0
4108,413	54,741	70,000	0,000E+0
4108,413	54,741	70,000	0,000E+0
4110,580	54,781	70,000	0,000E+0
4110,580	54,781	70,000	0,000E+0
4112,747	54,733	70,000	0,000E+0
4112,747	54,733	70,000	0,000E+0
4114,916	54,824	70,000	0,000E+0
4114,916	54,824	70,000	0,000E+0
4117,081	54,829	70,000	0,000E+0
4117,081	54,829	70,000	0,000E+0
4119,248	54,788	70,000	0,000E+0
4119,248	54,788	70,000	0,000E+0
4119,248	54,788	70,000	0,000E+0
4121,414	54,894	70,000	0,000E+0
4121,414	54,894	70,000	0,000E+0
4123,581	54,936	70,000	0,000E+0
4123,581	54,936	70,000	0,000E+0
4125,748	54,887	70,000	0,000E+0
4125,748	54,887	70,000	0,000E+0
4127,915	54,750	70,000	0,000E+0
4127,915	54,750	70,000	0,000E+0
4130,082	54,804	70,000	0,000E+0
4130,082	54,804	70,000	0,000E+0
4132,249	54,869	70,000	0,000E+0
4132,249	54,869	70,000	0,000E+0
4132,249	54,869	70,000	0,000E+0
4134,413	54,886	70,000	0,000E+0
4134,413	54,886	70,000	0,000E+0
4136,582	54,926	70,000	0,000E+0
4136,582	54,926	70,000	0,000E+0
4138,749	55,045	70,000	0,000E+0
4138,749	55,045	70,000	0,000E+0
4140,918	55,067	70,000	0,000E+0
4140,918	55,067	70,000	0,000E+0
4143,085	54,990	70,000	0,000E+0
4143,085	54,990	70,000	0,000E+0
4145,254	54,931	70,000	0,000E+0
4145,254	54,931	70,000	0,000E+0
4145,254	54,931	70,000	0,000E+0
4147,419	55,005	70,000	0,000E+0
4147,419	55,005	70,000	0,000E+0
4149,585	55,129	70,000	0,000E+0
4149,585	55,129	70,000	0,000E+0
4151,752	55,131	70,000	0,000E+0
4151,752	55,131	70,000	0,000E+0
4153,919	55,020	70,000	0,000E+0
4153,919	55,020	70,000	0,000E+0
4156,084	55,018	70,000	0,000E+0
4156,084	55,018	70,000	0,000E+0
4158,251	55,120	70,000	0,000E+0
4158,251	55,120	70,000	0,000E+0
4158,251	55,120	70,000	0,000E+0
4160,418	55,102	70,000	0,000E+0
4160,418	55,102	70,000	0,000E+0
4162,582	55,137	70,000	0,000E+0
4162,582	55,137	70,000	0,000E+0
4164,749	55,016	70,000	0,000E+0
4164,749	55,016	70,000	0,000E+0
4166,916	55,025	70,000	0,000E+0
4166,916	55,025	70,000	0,000E+0
4169,085	55,008	70,000	0,000E+0
4169,085	55,008	70,000	0,000E+0
4171,252	55,060	70,000	0,000E+0
4171,252	55,060	70,000	0,000E+0
4173,421	54,953	70,000	0,000E+0
4173,421	54,953	70,000	0,000E+0
4173,421	54,953	70,000	0,000E+0
4175,589	55,062	70,000	0,000E+0
4175,589	55,062	70,000	0,000E+0
4177,754	55,087	70,000	0,000E+0
4177,754	55,087	70,000	0,000E+0
4179,921	55,234	70,000	0,000E+0
4179,921	55,234	70,000	0,000E+0
4182,086	55,256	70,000	0,000E+0
4182,086	55,256	70,000	0,000E+0
4184,253	55,261	70,000	0,000E+0
4184,253	55,261	70,000	0,000E+0
4186,422	55,261	70,000	0,000E+0
4186,422	55,261	70,000	0,000E+0
4186,422	55,261	70,000	0,000E+0
4188,586	55,254	70,000	0,000E+0
4188,586	55,254	70,000	0,000E+0
4190,753	55,271	70,000	0,000E+0
4190,753	55,271	70,000	0,000E+0
4192,922	55,444	70,000	0,000E+0
4192,922	55,444	70,000	0,000E+0
4195,085	55,437	70,000	0,000E+0
4195,085	55,437	70,000	0,000E+0
4197,252	55,363	70,000	0,000E+0
4197,252	55,363	70,000	0,000E+0
4199,417	55,390	70,000	0,000E+0
4199,417	55,390	70,000	0,000E+0
4199,417	55,390	70,000	0,000E+0
4201,584	55,372	70,000	0,000E+0
4201,584	55,372	70,000	0,000E+0
4203,750	55,279	70,000	0,000E+0
4203,750	55,279	70,000	0,000E+0
4205,917	55,310	70,000	0,000E+0
4205,917	55,310	70,000	0,000E+0
4208,086	55,214	70,000	0,000E+0
4208,086	55,214	70,000	0,000E+0
4210,251	55,283	70,000	0,000E+0
4210,251	55,283	70,000	0,000E+0
4212,418	55,340	70,000	0,000E+0
4212,418	55,340	70,000	0,000E+0
4212,418	55,340	70,000	0,000E+0
4214,583	55,466	70,000	0,000E+0
4214,583	55,466	70,000	0,000E+0
4216,750	55,551	70,000	0,000E+0
4216,750	55,551	70,000	0,000E+0
4218,916	55,632	70,000	0,000E+0
4218,916	55,632	70,000	0,000E+0
4221,081	55,585	70,000	0,000E+0
4221,081	55,585	70,000	0,000E+0
4223,250	55,543	70,000	0,000E+0
4223,250	55,543	70,000	0,000E+0
4225,417	55,419	70,000	0,000E+0
4225,417	55,419	70,000	0,000E+0
4225,417	55,419	70,000	0,000E+0
4227,582	55,409	70,000	0,000E+0
4227,582	55,409	70,000	0,000E+0
4229,749	55,422	70,000	0,000E+0
4229,749	55,422	70,000	0,000E+0
4231,913	55,417	70,000	0,000E+0
4231,913	55,417	70,000	0,000E+0
4234,082	55,476	70,000	0,000E+0
4234,082	55,476	70,000	0,000E+0
4236,249	55,526	70,000	0,000E+0
4236,249	55,526	70,000	0,000E+0
4238,414	55,538	70,000	0,000E+0
4238,414	55,538	70,000	0,000E+0
4238,414	55,538	70,000	0,000E+0
4240,581	55,659	70,000	0,000E+0
4240,581	55,659	70,000	0,000E+0
4242,746	55,506	70,000	0,000E+0
4242,746	55,506	70,000	0,000E+0
4244,914	55,491	70,000	0,000E+0
4244,914	55,491	70,000	0,000E+0
4247,081	55,479	70,000	0,000E+0
4247,081	55,479	70,000	0,000E+0
4249,246	55,514	70,000	0,000E+0
4249,246	55,514	70,000	0,000E+0
4251,413	55,521	70,000	0,000E+0
4251,413	55,521	70,000	0,000E+0
4251,413	55,521	70,000	0,000E+0
4253,580	55,499	70,000	0,000E+0
4253,580	55,499	70,000	0,000E+0
4255,745	55,464	70,000	0,000E+0
4255,745	55,464	70,000	0,000E+0
4257,912	55,568	70,000	0,000E+0
4257,912	55,568	70,000	0,000E+0
4260,078	55,565	70,000	0,000E+0
4260,078	55,565	70,000	0,000E+0
4262,245	55,519	70,000	0,000E+0
4262,245	55,519	70,000	0,000E+0
4264,412	55,568	70,000	0,000E+0
4264,412	55,568	70,000	0,000E+0
4264,412	55,568	70,000	0,000E+0
4266,579	55,598	70,000	0,000E+0
4266,579	55,598	70,000	0,000E+0
4268,746	55,590	70,000	0,000E+0
4268,746	55,590	70,000	0,000E+0
4270,907	55,561	70,000	0,000E+0
4270,907	55,561	70,000	0,000E+0
4273,073	55,494	70,000	0,000E+0
4273,073	55,494	70,000	0,000E+0
4275,240	55,543	70,000	0,000E+0
4275,240	55,543	70,000	0,000E+0
4277,405	55,533	70,000	0,000E+0
4277,405	55,533	70,000	0,000E+0
4277,405	55,533	70,000	0,000E+0
4279,570	55,553	70,000	0,000E+0
4279,570	55,553	70,000	0,000E+0
4281,737	55,635	70,000	0,000E+0
4281,737	55,635	70,000	0,000E+0
4283,904	55,637	70,000	0,000E+0
4283,904	55,637	70,000	0,000E+0
4286,071	55,652	70,000	0,000E+0
4286,071	55,652	70,000	0,000E+0
4288,236	55,749	70,000	0,000E+0
4288,236	55,749	70,000	0,000E+0
4290,402	55,669	70,000	0,000E+0
4290,402	55,669	70,000	0,000E+0
4290,402	55,669	70,000	0,000E+0
4292,569	55,701	70,000	0,000E+0
4292,569	55,701	70,000	0,000E+0
4294,740	55,759	70,000	0,000E+0
4294,740	55,759	70,000	0,000E+0
4296,909	55,804	70,000	0,000E+0
4296,909	55,804	70,000	0,000E+0
4299,074	55,712	70,000	0,000E+0
4299,074	55,712	70,000	0,000E+0
4301,241	55,845	70,000	0,000E+0
4301,241	55,845	70,000	0,000E+0
4303,409	55,823	70,000	0,000E+0
4303,409	55,823	70,000	0,000E+0
4303,409	55,823	70,000	0,000E+0
4305,574	55,786	70,000	0,000E+0
4305,574	55,786	70,000	0,000E+0
4307,741	55,749	70,000	0,000E+0
4307,741	55,749	70,000	0,000E+0
4309,906	55,917	70,000	0,000E+0
4309,906	55,917	70,000	0,000E+0
4312,075	55,967	70,000	0,000E+0
4312,075	55,967	70,000	0,000E+0
4314,242	56,068	70,000	0,000E+0
4314,242	56,068	70,000	0,000E+0
4316,409	56,199	70,000	0,000E+0
4316,409	56,199	70,000	0,000E+0
4316,409	56,199	70,000	0,000E+0
4318,575	56,266	70,000	0,000E+0
4318,575	56,266	70,000	0,000E+0
4320,740	56,179	70,000	0,000E+0
4320,740	56,179	70,000	0,000E+0
4322,910	56,093	70,000	0,000E+0
4322,910	56,093	70,000	0,000E+0
4325,074	56,035	70,000	0,000E+0
4325,074	56,035	70,000	0,000E+0
4327,241	55,991	70,000	0,000E+0
4327,241	55,991	70,000	0,000E+0
4329,408	55,969	70,000	0,000E+0
4329,408	55,969	70,000	0,000E+0
4329,408	55,969	70,000	0,000E+0
4331,573	55,979	70,000	0,000E+0
4331,573	55,979	70,000	0,000E+0
4333,740	56,019	70,000	0,000E+0
4333,740	56,019	70,000	0,000E+0
4335,906	56,127	70,000	0,000E+0
4335,906	56,127	70,000	0,000E+0
4338,071	56,172	70,000	0,000E+0
4338,071	56,172	70,000	0,000E+0
4340,238	56,169	70,000	0,000E+0
4340,238	56,169	70,000	0,000E+0
4342,405	56,173	70,000	0,000E+0
4342,405	56,173	70,000	0,000E+0
4342,405	56,173	70,000	0,000E+0
4344,572	56,071	70,000	0,000E+0
4344,572	56,071	70,000	0,000E+0
4346,739	56,073	70,000	0,000E+0
4346,739	56,073	70,000	0,000E+0
4348,904	56,120	70,000	0,000E+0
4348,904	56,120	70,000	0,000E+0
4351,070	56,098	70,000	0,000E+0
4351,070	56,098	70,000	0,000E+0
4353,235	56,182	70,000	0,000E+0
4353,235	56,182	70,000	0,000E+0
4355,402	56,194	70,000	0,000E+0
4355,402	56,194	70,000	0,000E+0
4355,402	56,194	70,000	0,000E+0
4357,571	56,160	70,000	0,000E+0
4357,571	56,160	70,000	0,000E+0
4359,738	56,269	70,000	0,000E+0
4359,738	56,269	70,000	0,000E+0
4361,904	56,244	70,000	0,000E+0
4361,904	56,244	70,000	0,000E+0
4364,071	56,249	70,000	0,000E+0
4364,071	56,249	70,000	0,000E+0
4366,236	56,373	70,000	0,000E+0
4366,236	56,373	70,000	0,000E+0
4368,405	56,410	70,000	0,000E+0
4368,405	56,410	70,000	0,000E+0
4368,405	56,410	70,000	0,000E+0
4370,569	56,331	70,000	0,000E+0
4370,569	56,331	70,000	0,000E+0
4372,734	56,214	70,000	0,000E+0
4372,734	56,214	70,000	0,000E+0
4374,901	56,240	70,000	0,000E+0
4374,901	56,240	70,000	0,000E+0
4377,066	56,128	70,000	0,000E+0
4377,066	56,128	70,000	0,000E+0
4379,231	56,079	70,000	0,000E+0
4379,231	56,079	70,000	0,000E+0
4381,397	56,230	70,000	0,000E+0
4381,397	56,230	70,000	0,000E+0
4383,564	56,298	70,000	0,000E+0
4383,564	56,298	70,000	0,000E+0
4383,564	56,298	70,000	0,000E+0
4385,731	56,235	70,000	0,000E+0
4385,731	56,235	70,000	0,000E+0
4387,898	56,213	70,000	0,000E+0
4387,898	56,213	70,000	0,000E+0
4390,063	56,252	70,000	0,000E+0
4390,063	56,252	70,000	0,000E+0
4392,229	56,158	70,000	0,000E+0
4392,229	56,158	70,000	0,000E+0
4394,392	56,195	70,000	0,000E+0
4394,392	56,195	70,000	0,000E+0
4396,557	56,244	70,000	0,000E+0
4396,557	56,244	70,000	0,000E+0
4396,557	56,244	70,000	0,000E+0
4398,724	56,194	70,000	0,000E+0
4398,724	56,194	70,000	0,000E+0
4400,889	56,239	70,000	0,000E+0
4400,889	56,239	70,000	0,000E+0
4403,055	56,254	70,000	0,000E+0
4403,055	56,254	70,000	0,000E+0
4405,222	56,274	70,000	0,000E+0
4405,222	56,274	70,000	0,000E+0
4407,387	56,376	70,000	0,000E+0
4407,387	56,376	70,000	0,000E+0
4409,552	56,447	70,000	0,000E+0
4409,552	56,447	70,000	0,000E+0
4409,552	56,447	70,000	0,000E+0
4411,721	56,442	70,000	0,000E+0
4411,721	56,442	70,000	0,000E+0
4413,886	56,413	70,000	0,000E+0
4413,886	56,413	70,000	0,000E+0
4416,052	56,438	70,000	0,000E+0
4416,052	56,438	70,000	0,000E+0
4418,219	56,351	70,000	0,000E+0
4418,219	56,351	70,000	0,000E+0
4420,388	56,410	70,000	0,000E+0
4420,388	56,410	70,000	0,000E+0
4422,557	56,388	70,000	0,000E+0
4422,557	56,388	70,000	0,000E+0
4422,557	56,388	70,000	0,000E+0
4424,724	56,460	70,000	0,000E+0
4424,724	56,460	70,000	0,000E+0
4426,888	56,549	70,000	0,000E+0
4426,888	56,549	70,000	0,000E+0
4429,055	56,520	70,000	0,000E+0
4429,055	56,520	70,000	0,000E+0
4431,220	56,562	70,000	0,000E+0
4431,220	56,562	70,000	0,000E+0
4433,387	56,549	70,000	0,000E+0
4433,387	56,549	70,000	0,000E+0
4435,554	56,609	70,000	0,000E+0
4435,554	56,609	70,000	0,000E+0
4435,554	56,609	70,000	0,000E+0
4437,720	56,680	70,000	0,000E+0
4437,720	56,680	70,000	0,000E+0
4439,889	56,730	70,000	0,000E+0
4439,889	56,730	70,000	0,000E+0
4442,054	56,650	70,000	0,000E+0
4442,054	56,650	70,000	0,000E+0
4444,221	56,589	70,000	0,000E+0
4444,221	56,589	70,000	0,000E+0
4446,388	56,532	70,000	0,000E+0
4446,388	56,532	70,000	0,000E+0
4448,552	56,443	70,000	0,000E+0
4448,552	56,443	70,000	0,000E+0
4448,552	56,443	70,000	0,000E+0
4450,719	56,523	70,000	0,000E+0
4450,719	56,523	70,000	0,000E+0
4452,886	56,490	70,000	0,000E+0
4452,886	56,490	70,000	0,000E+0
4455,055	56,467	70,000	0,000E+0
4455,055	56,467	70,000	0,000E+0
4457,226	56,527	70,000	0,000E+0
4457,226	56,527	70,000	0,000E+0
4459,391	56,683	70,000	0,000E+0
4459,391	56,683	70,000	0,000E+0
4461,555	56,623	70,000	0,000E+0
4461,555	56,623	70,000	0,000E+0
4461,555	56,623	70,000	0,000E+0
4463,720	56,581	70,000	0,000E+0
4463,720	56,581	70,000	0,000E+0
4465,885	56,480	70,000	0,000E+0
4465,885	56,480	70,000	0,000E+0
4468,054	56,520	70,000	0,000E+0
4468,054	56,520	70,000	0,000E+0
4470,221	56,576	70,000	0,000E+0
4470,221	56,576	70,000	0,000E+0
4472,390	56,592	70,000	0,000E+0
4472,390	56,592	70,000	0,000E+0
4474,554	56,607	70,000	0,000E+0
4474,554	56,607	70,000	0,000E+0
4474,554	56,607	70,000	0,000E+0
4476,721	56,668	70,000	0,000E+0
4476,721	56,668	70,000	0,000E+0
4478,888	56,792	70,000	0,000E+0
4478,888	56,792	70,000	0,000E+0
4481,055	56,743	70,000	0,000E+0
4481,055	56,743	70,000	0,000E+0
4483,222	56,666	70,000	0,000E+0
4483,222	56,666	70,000	0,000E+0
4485,389	56,634	70,000	0,000E+0
4485,389	56,634	70,000	0,000E+0
4487,551	56,765	70,000	0,000E+0
4487,551	56,765	70,000	0,000E+0
4487,551	56,765	70,000	0,000E+0
4489,718	56,792	70,000	0,000E+0
4489,718	56,792	70,000	0,000E+0
4491,885	56,859	70,000	0,000E+0
4491,885	56,859	70,000	0,000E+0
4494,050	56,743	70,000	0,000E+0
4494,050	56,743	70,000	0,000E+0
4496,217	56,738	70,000	0,000E+0
4496,217	56,738	70,000	0,000E+0
4498,384	56,713	70,000	0,000E+0
4498,384	56,713	70,000	0,000E+0
4500,552	56,676	70,000	0,000E+0
4500,552	56,676	70,000	0,000E+0
4500,552	56,676	70,000	0,000E+0
4502,721	56,767	70,000	0,000E+0
4502,721	56,767	70,000	0,000E+0
4504,886	56,787	70,000	0,000E+0
4504,886	56,787	70,000	0,000E+0
4507,053	56,727	70,000	0,000E+0
4507,053	56,727	70,000	0,000E+0
4509,219	56,802	70,000	0,000E+0
4509,219	56,802	70,000	0,000E+0
4511,384	56,951	70,000	0,000E+0
4511,384	56,951	70,000	0,000E+0
4513,551	56,874	70,000	0,000E+0
4513,551	56,874	70,000	0,000E+0
4513,551	56,874	70,000	0,000E+0
4515,718	56,864	70,000	0,000E+0
4515,718	56,864	70,000	0,000E+0
4517,883	56,854	70,000	0,000E+0
4517,883	56,854	70,000	0,000E+0
4520,050	56,730	70,000	0,000E+0
4520,050	56,730	70,000	0,000E+0
4522,214	56,913	70,000	0,000E+0
4522,214	56,913	70,000	0,000E+0
4524,383	56,993	70,000	0,000E+0
4524,383	56,993	70,000	0,000E+0
4526,550	57,139	70,000	0,000E+0
4526,550	57,139	70,000	0,000E+0
4526,550	57,139	70,000	0,000E+0
4528,715	57,245	70,000	0,000E+0
4528,715	57,245	70,000	0,000E+0
4530,886	57,054	70,000	0,000E+0
4530,886	57,054	70,000	0,000E+0
4533,051	57,054	70,000	0,000E+0
4533,051	57,054	70,000	0,000E+0
4535,217	57,092	70,000	0,000E+0
4535,217	57,092	70,000	0,000E+0
4537,384	57,059	70,000	0,000E+0
4537,384	57,059	70,000	0,000E+0
4539,549	57,082	70,000	0,000E+0
4539,549	57,082	70,000	0,000E+0
4539,549	57,082	70,000	0,000E+0
4541,716	57,069	70,000	0,000E+0
4541,716	57,069	70,000	0,000E+0
4543,883	57,082	70,000	0,000E+0
4543,883	57,082	70,000	0,000E+0
4546,050	57,000	70,000	0,000E+0
4546,050	57,000	70,000	0,000E+0
4548,218	56,864	70,000	0,000E+0
4548,218	56,864	70,000	0,000E+0
4550,383	56,839	70,000	0,000E+0
4550,383	56,839	70,000	0,000E+0
4552,550	56,869	70,000	0,000E+0
4552,550	56,869	70,000	0,000E+0
4552,550	56,869	70,000	0,000E+0
4554,717	56,918	70,000	0,000E+0
4554,717	56,918	70,000	0,000E+0
4556,882	56,938	70,000	0,000E+0
4556,882	56,938	70,000	0,000E+0
4559,049	57,037	70,000	0,000E+0
4559,049	57,037	70,000	0,000E+0
4561,216	57,087	70,000	0,000E+0
4561,216	57,087	70,000	0,000E+0
4563,380	57,077	70,000	0,000E+0
4563,380	57,077	70,000	0,000E+0
4565,547	57,077	70,000	0,000E+0
4565,547	57,077	70,000	0,000E+0
4565,547	57,077	70,000	0,000E+0
4567,712	57,148	70,000	0,000E+0
4567,712	57,148	70,000	0,000E+0
4569,879	57,074	70,000	0,000E+0
4569,879	57,074	70,000	0,000E+0
4572,044	56,963	70,000	0,000E+0
4572,044	56,963	70,000	0,000E+0
4574,213	56,943	70,000	0,000E+0
4574,213	56,943	70,000	0,000E+0
4576,379	56,960	70,000	0,000E+0
4576,379	56,960	70,000	0,000E+0
4578,546	57,037	70,000	0,000E+0
4578,546	57,037	70,000	0,000E+0
4578,546	57,037	70,000	0,000E+0
4580,713	57,153	70,000	0,000E+0
4580,713	57,153	70,000	0,000E+0
4582,880	57,235	70,000	0,000E+0
4582,880	57,235	70,000	0,000E+0
4585,047	57,198	70,000	0,000E+0
4585,047	57,198	70,000	0,000E+0
4587,214	57,210	70,000	0,000E+0
4587,214	57,210	70,000	0,000E+0
4589,379	57,179	70,000	0,000E+0
4589,379	57,179	70,000	0,000E+0
4591,547	57,228	70,000	0,000E+0
4591,547	57,228	70,000	0,000E+0
4591,547	57,228	70,000	0,000E+0
4593,716	57,346	70,000	0,000E+0
4593,716	57,346	70,000	0,000E+0
4595,883	57,378	70,000	0,000E+0
4595,883	57,378	70,000	0,000E+0
4598,052	57,312	70,000	0,000E+0
4598,052	57,181	70,000	0,000E+0
4600,181	57,181	70,000	0,000E+0
4600,181	57,181	70,000	0,000E+0
4602,360	57,262	70,000	0,000E+0
4602,360	57,262	70,000	0,000E+0
4604,526	57,277	70,000	0,000E+0
4604,526	57,277	70,000	0,000E+0
4604,526	57,277	70,000	0,000E+0
4606,693	57,341	70,000	0,000E+0
4606,693	57,341	70,000	0,000E+0
4608,862	57,560	70,000	0,000E+0
4608,862	57,560	70,000	0,000E+0
4611,027	57,508	70,000	0,000E+0
4611,027	57,508	70,000	0,000E+0
4613,192	57,402	70,000	0,000E+0
4613,192	57,402	70,000	0,000E+0
4615,359	57,371	70,000	0,000E+0
4615,359	57,371	70,000	0,000E+0
4617,523	57,257	70,000	0,000E+0
4617,523	57,257	70,000	0,000E+0
4617,523	57,257	70,000	0,000E+0
4619,690	57,265	70,000	0,000E+0
4619,690	57,265	70,000	0,000E+0
4621,859	57,265	70,000	0,000E+0
4621,859	57,265	70,000	0,000E+0
4624,024	57,203	70,000	0,000E+0
4624,024	57,203	70,000	0,000E+0
4626,191	57,176	70,000	0,000E+0
4626,191	57,176	70,000	0,000E+0
4628,357	57,223	70,000	0,000E+0
4628,357	57,223	70,000	0,000E+0
4630,522	57,186	70,000	0,000E+0
4630,522	57,186	70,000	0,000E+0
4630,522	57,186	70,000	0,000E+0
4632,689	57,331	70,000	0,000E+0
4632,689	57,331	70,000	0,000E+0
4634,854	57,255	70,000	0,000E+0
4634,854	57,255	70,000	0,000E+0
4637,021	57,141	70,000	0,000E+0
4637,021	57,141	70,000	0,000E+0
4639,188	57,193	70,000	0,000E+0
4639,188	57,193	70,000	0,000E+0
4641,354	57,272	70,000	0,000E+0
4641,354	57,272	70,000	0,000E+0
4643,521	57,295	70,000	0,000E+0
4643,521	57,295	70,000	0,000E+0
4643,521	57,295	70,000	0,000E+0
4645,690	57,455	70,000	0,000E+0
4645,690	57,455	70,000	0,000E+0
4647,857	57,492	70,000	0,000E+0
4647,857	57,492	70,000	0,000E+0
4650,024	57,435	70,000	0,000E+0
4650,024	57,435	70,000	0,000E+0
4652,190	57,450	70,000	0,000E+0
4652,190	57,450	70,000	0,000E+0
4654,357	57,443	70,000	0,000E+0
4654,357	57,443	70,000	0,000E+0
4656,524	57,357	70,000	0,000E+0
4656,524	57,357	70,000	0,000E+0
4656,524	57,357	70,000	0,000E+0
4658,691	57,386	70,000	0,000E+0
4658,691	57,386	70,000	0,000E+0
4660,858	57,408	70,000	0,000E+0
4660,858	57,408	70,000	0,000E+0
4663,023	57,418	70,000	0,000E+0
4663,023	57,418	70,000	0,000E+0
4665,189	57,404	70,000	0,000E+0
4665,189	57,404	70,000	0,000E+0
4667,356	57,510	70,000	0,000E+0
4667,356	57,510	70,000	0,000E+0
4669,525	57,458	70,000	0,000E+0
4669,525	57,458	70,000	0,000E+0
4669,525	57,458	70,000	0,000E+0
4671,690	57,428	70,000	0,000E+0
4671,690	57,428	70,000	0,000E+0
4673,857	57,453	70,000	0,000E+0
4673,857	57,453	70,000	0,000E+0
4676,022	57,423	70,000	0,000E+0
4676,022	57,423	70,000	0,000E+0
4678,187	57,475	70,000	0,000E+0
4678,187	57,475	70,000	0,000E+0
4680,353	57,421	70,000	0,000E+0
4680,353	57,421	70,000	0,000E+0
4682,520	57,391	70,000	0,000E+0
4682,520	57,391	70,000	0,000E+0
4682,520	57,391	70,000	0,000E+0
4684,689	57,339	70,000	0,000E+0
4684,689	57,339	70,000	0,000E+0
4686,854	57,389	70,000	0,000E+0
4686,854	57,389	70,000	0,000E+0
4689,021	57,492	70,000	0,000E+0
4689,021	57,492	70,000	0,000E+0
4691,189	57,569	70,000	0,000E+0
4691,189	57,569	70,000	0,000E+0
4693,354	57,622	70,000	0,000E+0
4693,354	57,622	70,000	0,000E+0
4695,523	57,640	70,000	0,000E+0
4695,523	57,640	70,000	0,000E+0
4695,523	57,640	70,000	0,000E+0
4697,690	57,778	70,000	0,000E+0
4697,690	57,778	70,000	0,000E+0
4699,859	57,813	70,000	0,000E+0
4699,859	57,813	70,000	0,000E+0
4702,028	57,687	70,000	0,000E+0
4702,028	57,687	70,000	0,000E+0
4704,197	57,598	70,000	0,000E+0
4704,197	57,598	70,000	0,000E+0
4706,365	57,537	70,000	0,000E+0
4706,365	57,537	70,000	0,000E+0
4708,530	57,618	70,000	0,000E+0
4708,530	57,618	70,000	0,000E+0
4708,530	57,618	70,000	0,000E+0
4710,697	57,643	70,000	0,000E+0
4710,697	57,643	70,000	0,000E+0
4712,866	57,584	70,000	0,000E+0
4712,866	57,584	70,000	0,000E+0
4715,035	57,623	70,000	0,000E+0
4715,035	57,623	70,000	0,000E+0
4717,202	57,643	70,000	0,000E+0
4717,202	57,643	70,000	0,000E+0
4719,369	57,665	70,000	0,000E+0
4719,369	57,665	70,000	0,000E+0
4721,535	57,565	70,000	0,000E+0
4721,535	57,565	70,000	0,000E+0
4721,535	57,565	70,000	0,000E+0
4723,702	57,588	70,000	0,000E+0
4723,702	57,588	70,000	0,000E+0
4725,867	57,712	70,000	0,000E+0
4725,867	57,712	70,000	0,000E+0
4728,034	57,762	70,000	0,000E+0
4728,034	57,762	70,000	0,000E+0
4730,201	57,823	70,000	0,000E+0
4730,201	57,823	70,000	0,000E+0
4732,368	57,814	70,000	0,000E+0
4732,368	57,814	70,000	0,000E+0
4734,534	57,811	70,000	0,000E+0
4734,534	57,811	70,000	0,000E+0
4734,534	57,811	70,000	0,000E+0
4736,701	57,829	70,000	0,000E+0
4736,701	57,829	70,000	0,000E+0
4738,868	57,883	70,000	0,000E+0
4738,868	57,883	70,000	0,000E+0
4741,031	57,853	70,000	0,000E+0
4741,031	57,853	70,000	0,000E+0
4743,198	57,860	70,000	0,000E+0
4743,198	57,860	70,000	0,000E+0
4745,365	57,910	70,000	0,000E+0
4745,365	57,910	70,000	0,000E+0
4747,529	57,902	70,000	0,000E+0
4747,529	57,902	70,000	0,000E+0
4747,529	57,902	70,000	0,000E+0
4749,698	58,033	70,000	0,000E+0
4749,698	58,033	70,000	0,000E+0
4751,861	58,048	70,000	0,000E+0
4751,861	58,048	70,000	0,000E+0
4754,028	57,932	70,000	0,000E+0
4754,028	57,932	70,000	0,000E+0
4756,195	57,915	70,000	0,000E+0
4756,195	57,915	70,000	0,000E+0
4758,360	57,863	70,000	0,000E+0
4758,360	57,863	70,000	0,000E+0
4760,528	58,004	70,000	0,000E+0
4760,528	58,004	70,000	0,000E+0
4760,528	58,004	70,000	0,000E+0
4762,693	57,976	70,000	0,000E+0
4762,693	57,976	70,000	0,000E+0
4764,860	58,055	70,000	0,000E+0
4764,860	58,055	70,000	0,000E+0
4767,029	58,070	70,000	0,000E+0
4767,029	58,070	70,000	0,000E+0
4769,194	58,080	70,000	0,000E+0
4769,194	58,080	70,000	0,000E+0
4771,361	58,115	70,000	0,000E+0
4771,361	58,115	70,000	0,000E+0
4773,527	58,122	70,000	0,000E+0
4773,527	58,122	70,000	0,000E+0
4773,527	58,122	70,000	0,000E+0
4775,695	58,229	70,000	0,000E+0
4775,695	58,229	70,000	0,000E+0
4777,861	58,219	70,000	0,000E+0
4777,861	58,219	70,000	0,000E+0
4780,028	58,164	70,000	0,000E+0
4780,028	58,164	70,000	0,000E+0
4782,195	58,013	70,000	0,000E+0
4782,195	58,013	70,000	0,000E+0
4784,362	57,989	70,000	0,000E+0
4784,362	57,989	70,000	0,000E+0
4786,527	57,942	70,000	0,000E+0
4786,527	57,942	70,000	0,000E+0
4786,527	57,942	70,000	0,000E+0
4788,695	57,952	70,000	0,000E+0
4788,695	57,952	70,000	0,000E+0
4790,860	58,142	70,000	0,000E+0
4790,860	58,142	70,000	0,000E+0
4793,025	58,104	70,000	0,000E+0
4793,025	58,104	70,000	0,000E+0
4795,192	58,100	70,000	0,000E+0
4795,192	58,100	70,000	0,000E+0
4797,359	58,048	70,000	0,000E+0
4797,359	58,048	70,000	0,000E+0
4799,528	58,159	70,000	0,000E+0
4799,528	58,159	70,000	0,000E+0
4799,528	58,159	70,000	0,000E+0
4801,693	58,127	70,000	0,000E+0
4801,693	58,127	70,000	0,000E+0
4803,860	58,179	70,000	0,000E+0
4803,860	58,179	70,000	0,000E+0
4806,026	58,171	70,000	0,000E+0
4806,026	58,171	70,000	0,000E+0
4808,191	58,146	70,000	0,000E+0
4808,191	58,146	70,000	0,000E+0
4810,358	58,072	70,000	0,000E+0
4810,358	58,072	70,000	0,000E+0
4812,521	58,025	70,000	0,000E+0
4812,521	58,025	70,000	0,000E+0
4812,521	58,025	70,000	0,000E+0
4814,690	57,989	70,000	0,000E+0
4814,690	57,989	70,000	0,000E+0
4816,855	58,055	70,000	0,000E+0
4816,855	58,055	70,000	0,000E+0
4819,022	58,169	70,000	0,000E+0
4819,022	58,169	70,000	0,000E+0
4821,188	58,144	70,000	0,000E+0
4821,188	58,144	70,000	0,000E+0
4823,357	58,073	70,000	0,000E+0
4823,357	58,073	70,000	0,000E+0
4825,526	58,253	70,000	0,000E+0
4825,526	58,253	70,000	0,000E+0
4825,526	58,253	70,000	0,000E+0
4827,691	58,233	70,000	0,000E+0
4827,691	58,233	70,000	0,000E+0
4829,856	58,156	70,000	0,000E+0
4829,856	58,156	70,000	0,000E+0
4832,021	58,115	70,000	0,000E+0
4832,021	58,115	70,000	0,000E+0
4834,190	58,014	70,000	0,000E+0
4834,190	58,014	70,000	0,000E+0
4836,356	58,016	70,000	0,000E+0
4836,356	58,016	70,000	0,000E+0
4838,525	58,110	70,000	0,000E+0
4838,525	58,110	70,000	0,000E+0
4838,525	58,110	70,000	0,000E+0
4840,690	58,107	70,000	0,000E+0
4840,690	58,107	70,000	0,000E+0
4842,859	58,154	70,000	0,000E+0
4842,859	58,154	70,000	0,000E+0
4845,024	58,189	70,000	0,000E+0
4845,024	58,189	70,000	0,000E+0
4847,193	58,142	70,000	0,000E+0
4847,193	58,142	70,000	0,000E+0
4849,360	58,164	70,000	0,000E+0
4849,360	58,164	70,000	0,000E+0
4851,523	58,218	70,000	0,000E+0
4851,523	58,218	70,000	0,000E+0
4851,523	58,218	70,000	0,000E+0
4853,689	58,206	70,000	0,000E+0
4853,689	58,206	70,000	0,000E+0
4855,856	58,275	70,000	0,000E+0
4855,856	58,275	70,000	0,000E+0
4858,025	58,213	70,000	0,000E+0
4858,025	58,213	70,000	0,000E+0
4860,192	58,233	70,000	0,000E+0
4860,192	58,233	70,000	0,000E+0
4862,359	58,265	70,000	0,000E+0
4862,359	58,265	70,000	0,000E+0
4864,526	58,196	70,000	0,000E+0
4864,526	58,196	70,000	0,000E+0
4866,691	58,206	70,000	0,000E+0
4866,691	58,206	70,000	0,000E+0
4866,691	58,206	70,000	0,000E+0
4868,859	58,176	70,000	0,000E+0
4868,859	58,176	70,000	0,000E+0
4871,026	58,260	70,000	0,000E+0
4871,026	58,260	70,000	0,000E+0
4873,195	58,300	70,000	0,000E+0
4873,195	58,300	70,000	0,000E+0
4875,362	58,258	70,000	0,000E+0
4875,362	58,258	70,000	0,000E+0
4877,529	58,236	70,000	0,000E+0
4877,529	58,236	70,000	0,000E+0
4879,694	58,241	70,000	0,000E+0
4879,694	58,241	70,000	0,000E+0
4879,694	58,241	70,000	0,000E+0
4881,860	58,246	70,000	0,000E+0
4881,860	58,246	70,000	0,000E+0
4884,027	58,204	70,000	0,000E+0
4884,027	58,204	70,000	0,000E+0
4886,196	58,310	70,000	0,000E+0
4886,196	58,310	70,000	0,000E+0
4888,363	58,445	70,000	0,000E+0
4888,363	58,445	70,000	0,000E+0
4890,530	58,475	70,000	0,000E+0
4890,530	58,475	70,000	0,000E+0
4892,698	58,578	70,000	0,000E+0
4892,698	58,578	70,000	0,000E+0
4892,698	58,578	70,000	0,000E+0
4894,863	58,692	70,000	0,000E+0
4894,863	58,692	70,000	0,000E+0
4897,030	58,714	70,000	0,000E+0
4897,030	58,714	70,000	0,000E+0
4899,197	58,586	70,000	0,000E+0
4899,197	58,586	70,000	0,000E+0
4901,362	58,438	70,000	0,000E+0
4901,362	58,438	70,000	0,000E+0
4903,531	58,403	70,000	0,000E+0
4903,531	58,403	70,000	0,000E+0
4905,696	58,389	70,000	0,000E+0
4905,696	58,389	70,000	0,000E+0
4905,696	58,389	70,000	0,000E+0
4907,864	58,463	70,000	0,000E+0
4907,864	58,463	70,000	0,000E+0
4910,031	58,524	70,000	0,000E+0
4910,031	58,524	70,000	0,000E+0
4912,196	58,507	70,000	0,000E+0
4912,196	58,507	70,000	0,000E+0
4914,365	58,475	70,000	0,000E+0
4914,365	58,475	70,000	0,000E+0
4916,531	58,477	70,000	0,000E+0
4916,531	58,477	70,000	0,000E+0
4918,696	58,494	70,000	0,000E+0
4918,696	58,494	70,000	0,000E+0
4918,696	58,494	70,000	0,000E+0
4920,863	58,541	70,000	0,000E+0
4920,863	58,541	70,000	0,000E+0
4923,026	58,586	70,000	0,000E+0
4923,026	58,586	70,000	0,000E+0
4925,193	58,618	70,000	0,000E+0
4925,193	58,618	70,000	0,000E+0
4927,362	58,578	70,000	0,000E+0
4927,362	58,578	70,000	0,000E+0
4929,526	58,684	70,000	0,000E+0
4929,526	58,684	70,000	0,000E+0
4931,693	58,682	70,000	0,000E+0
4931,693	58,682	70,000	0,000E+0
4931,693	58,682	70,000	0,000E+0
4933,860	58,628	70,000	0,000E+0
4933,860	58,628	70,000	0,000E+0
4936,025	58,571	70,000	0,000E+0
4936,025	58,571	70,000	0,000E+0
4938,190	58,581	70,000	0,000E+0
4938,190	58,581	70,000	0,000E+0
4940,357	58,558	70,000	0,000E+0
4940,357	58,558	70,000	0,000E+0
4942,523	58,497	70,000	0,000E+0
4942,523	58,497	70,000	0,000E+0
4944,692	58,549	70,000	0,000E+0
4944,692	58,549	70,000	0,000E+0
4944,692	58,549	70,000	0,000E+0
4946,859	58,591	70,000	0,000E+0
4946,859	58,591	70,000	0,000E+0
4949,024	58,489	70,000	0,000E+0
4949,024	58,489	70,000	0,000E+0
4951,189	58,509	70,000	0,000E+0
4951,189	58,509	70,000	0,000E+0
4953,358	58,532	70,000	0,000E+0
4953,358	58,532	70,000	0,000E+0
4955,524	58,586	70,000	0,000E+0
4955,524	58,586	70,000	0,000E+0
4957,691	58,556	70,000	0,000E+0
4957,691	58,556	70,000	0,000E+0
4957,691	58,556	70,000	0,000E+0
4959,858	58,637	70,000	0,000E+0
4959,858	58,637	70,000	0,000E+0
4962,027	58,711	70,000	0,000E+0
4962,027	58,711	70,000	0,000E+0
4964,192	58,658	70,000	0,000E+0
4964,192	58,658	70,000	0,000E+0
4966,355	58,620	70,000	0,000E+0
4966,355	58,620	70,000	0,000E+0
4968,517	58,586	70,000	0,000E+0
4968,517	58,586	70,000	0,000E+0
4970,686	58,611	70,000	0,000E+0
4970,686	58,611	70,000	0,000E+0
4970,686	58,611	70,000	0,000E+0
4972,855	58,636	70,000	0,000E+0
4972,855	58,636	70,000	0,000E+0
4975,020	58,730	70,000	0,000E+0
4975,020	58,730	70,000	0,000E+0
4977,187	58,732	70,000	0,000E+0
4977,187	58,732	70,000	0,000E+0
4979,354	58,724	70,000	0,000E+0
4979,354	58,724	70,000	0,000E+0
4981,519	58,719	70,000	0,000E+0
4981,519	58,719	70,000	0,000E+0
4983,687	58,778	70,000	0,000E+0
4983,687	58,778	70,000	0,000E+0
4983,687	58,778	70,000	0,000E+0
4985,854	58,823	70,000	0,000E+0
4985,854	58,823	70,000	0,000E+0
4988,021	58,870	70,000	0,000E+0
4988,021	58,870	70,000	0,000E+0
4990,186	58,850	70,000	0,000E+0
4990,186	58,850	70,000	0,000E+0
4992,353	58,919	70,000	0,000E+0
4992,353	58,919	70,000	0,000E+0
4994,522	58,944	70,000	0,000E+0
4994,522	58,944	70,000	0,000E+0
4996,688	58,856	70,000	0,000E+0
4996,688	58,856	70,000	0,000E+0
4996,688	58,856	70,000	0,000E+0
4998,855	58,829	70,000	0,000E+0
4998,855	58,829	70,000	0,000E+0
5001,022	58,794	70,000	0,000E+0
5001,022	58,794	70,000	0,000E+0
5003,187	58,759	70,000	0,000E+0
5003,187	58,759	70,000	0,000E+0
5005,356	58,724	70,000	0,000E+0
5005,356	58,724	70,000	0,000E+0
5007,519	58,783	70,000	0,000E+0
5007,519	58,783	70,000	0,000E+0
5009,688	58,793	70,000	0,000E+0
5009,688	58,793	70,000	0,000E+0
5009,688	58,793	70,000	0,000E+0
5011,854	58,811	70,000	0,000E+0
5011,854	58,811	70,000	0,000E+0
5014,021	58,813	70,000	0,000E+0
5014,021	58,813	70,000	0,000E+0
5016,188	58,779	70,000	0,000E+0
5016,188	58,779	70,000	0,000E+0
5018,353	58,826	70,000	0,000E+0
5018,353	58,826	70,000	0,000E+0
5020,520	58,828	70,000	0,000E+0
5020,520	58,828	70,000	0,000E+0
5022,689	58,752	70,000	0,000E+0
5022,689	58,752	70,000	0,000E+0
5022,689	58,752	70,000	0,000E+0
5024,853	58,756	70,000	0,000E+0
5024,853	58,756	70,000	0,000E+0
5027,020	58,791	70,000	0,000E+0
5027,020	58,791	70,000	0,000E+0
5029,185	58,739	70,000	0,000E+0
5029,185	58,739	70,000	0,000E+0
5031,352	58,823	70,000	0,000E+0
5031,352	58,823	70,000	0,000E+0
5033,517	58,880	70,000	0,000E+0
5033,517	58,880	70,000	0,000E+0
5035,684	58,944	70,000	0,000E+0
5035,684	58,944	70,000	0,000E+0
5035,684	58,944	70,000	0,000E+0
5037,853	58,914	70,000	0,000E+0
5037,853	58,914	70,000	0,000E+0
5040,017	58,880	70,000	0,000E+0
5040,017	58,880	70,000	0,000E+0
5042,186	58,897	70,000	0,000E+0
5042,186	58,897	70,000	0,000E+0
5044,353	58,907	70,000	0,000E+0
5044,353	58,907	70,000	0,000E+0
5046,518	58,847	70,000	0,000E+0
5046,518	58,847	70,000	0,000E+0
5048,685	58,784	70,000	0,000E+0
5048,685	58,784	70,000	0,000E+0
5048,685	58,784	70,000	0,000E+0
5050,850	58,808	70,000	0,000E+0
5050,850	58,808	70,000	0,000E+0
5053,014	58,912	70,000	0,000E+0
5053,014	58,912	70,000	0,000E+0
5055,181	58,952	70,000	0,000E+0
5055,181	58,952	70,000	0,000E+0
5057,348	58,936	70,000	0,000E+0
5057,348	58,936	70,000	0,000E+0
5059,513	58,942	70,000	0,000E+0
5059,513	58,942	70,000	0,000E+0
5061,682	58,974	70,000	0,000E+0
5061,682	58,974	70,000	0,000E+0
5061,682	58,974	70,000	0,000E+0
5063,849	59,028	70,000	0,000E+0
5063,849	59,028	70,000	0,000E+0
5066,016	58,994	70,000	0,000E+0
5066,016	58,994	70,000	0,000E+0
5068,183	58,946	70,000	0,000E+0
5068,183	58,946	70,000	0,000E+0
5070,349	58,919	70,000	0,000E+0
5070,349	58,919	70,000	0,000E+0
5072,514	58,910	70,000	0,000E+0
5072,514	58,910	70,000	0,000E+0
5074,681	58,930	70,000	0,000E+0
5074,681	58,930	70,000	0,000E+0
5074,681	58,930	70,000	0,000E+0
5076,850	58,962	70,000	0,000E+0
5076,850	58,962	70,000	0,000E+0
5079,017	58,967	70,000	0,000E+0
5079,017	58,967	70,000	0,000E+0
5081,182	59,041	70,000	0,000E+0
5081,182	59,041	70,000	0,000E+0
5083,350	59,083	70,000	0,000E+0
5083,350	59,083	70,000	0,000E+0
5085,515	59,117	70,000	0,000E+0
5085,515	59,117	70,000	0,000E+0
5087,684	59,093	70,000	0,000E+0
5087,684	59,093	70,000	0,000E+0
5087,684	59,093	70,000	0,000E+0
5089,849	59,031	70,000	0,000E+0
5089,849	59,031	70,000	0,000E+0
5092,016	58,969	70,000	0,000E+0
5092,016	58,969	70,000	0,000E+0
5094,185	58,905	70,000	0,000E+0
5094,185	58,905	70,000	0,000E+0
5096,350	58,935	70,000	0,000E+0
5096,350	58,935	70,000	0,000E+0
5098,516	59,033	70,000	0,000E+0
5098,516	59,033	70,000	0,000E+0
5100,683	59,115	70,000	0,000E+0
5100,683	59,115	70,000	0,000E+0
5100,683	59,115	70,000	0,000E+0
5102,849	59,063	70,000	0,000E+0
5102,849	59,063	70,000	0,000E+0
5105,017	59,151	70,000	0,000E+0
5105,017	59,151	70,000	0,000E+0
5107,182	59,147	70,000	0,000E+0
5107,182	59,147	70,000	0,000E+0
5109,351	59,082	70,000	0,000E+0
5109,351	59,082	70,000	0,000E+0
5111,516	59,105	70,000	0,000E+0
5111,516	59,105	70,000	0,000E+0
5113,683	59,127	70,000	0,000E+0
5113,683	59,127	70,000	0,000E+0
5113,683	59,127	70,000	0,000E+0
5115,849	59,080	70,000	0,000E+0
5115,849	59,080	70,000	0,000E+0
5118,014	59,145	70,000	0,000E+0
5118,014	59,145	70,000	0,000E+0
5120,181	59,151	70,000	0,000E+0
5120,181	59,151	70,000	0,000E+0
5122,350	59,265	70,000	0,000E+0
5122,350	59,265	70,000	0,000E+0
5124,519	59,325	70,000	0,000E+0
5124,519	59,325	70,000	0,000E+0
5126,684	59,223	70,000	0,000E+0
5126,684	59,223	70,000	0,000E+0
5126,684	59,223	70,000	0,000E+0
5128,848	59,169	70,000	0,000E+0
5128,848	59,169	70,000	0,000E+0
5131,015	59,208	70,000	0,000E+0
5131,015	59,208	70,000	0,000E+0
5133,180	59,105	70,000	0,000E+0
5133,180	59,105	70,000	0,000E+0
5135,345	59,043	70,000	0,000E+0
5135,345	59,043	70,000	0,000E+0
5137,510	59,076	70,000	0,000E+0
5137,510	59,076	70,000	0,000E+0
5139,675	59,167	70,000	0,000E+0
5139,675	59,167	70,000	0,000E+0
5139,675	59,167	70,000	0,000E+0
5141,842	59,255	70,000	0,000E+0
5141,842	59,255	70,000	0,000E+0
5144,010	59,194	70,000	0,000E+0
5144,010	59,194	70,000	0,000E+0
5146,175	59,199	70,000	0,000E+0
5146,175	59,199	70,000	0,000E+0
5148,344	59,211	70,000	0,000E+0
5148,344	59,211	70,000	0,000E+0
5150,509	59,206	70,000	0,000E+0
5150,509	59,206	70,000	0,000E+0
5152,676	59,247	70,000	0,000E+0
5152,676	59,247	70,000	0,000E+0
5152,676	59,247	70,000	0,000E+0
5154,843	59,262	70,000	0,000E+0
5154,843	59,262	70,000	0,000E+0
5157,009	59,263	70,000	0,000E+0
5157,009	59,263	70,000	0,000E+0
5159,176	59,241	70,000	0,000E+0
5159,176	59,241	70,000	0,000E+0
5161,343	59,281	70,000	0,000E+0
5161,343	59,281	70,000	0,000E+0
5163,512	59,310	70,000	0,000E+0
5163,512	59,310	70,000	0,000E+0
5165,677	59,347	70,000	0,000E+0
5165,677	59,347	70,000	0,000E+0
5165,677	59,347	70,000	0,000E+0
5167,842	59,369	70,000	0,000E+0
5167,842	59,369	70,000	0,000E+0
5170,010	59,399	70,000	0,000E+0
5170,010	59,399	70,000	0,000E+0
5172,175	59,434	70,000	0,000E+0
5172,175	59,434	70,000	0,000E+0
5174,342	59,497	70,000	0,000E+0
5174,342	59,497	70,000	0,000E+0
5176,507	59,561	70,000	0,000E+0
5176,507	59,561	70,000	0,000E+0
5178,674	59,456	70,000	0,000E+0
5178,674	59,456	70,000	0,000E+0
5178,674	59,456	70,000	0,000E+0
5180,841	59,421	70,000	0,000E+0
5180,841	59,421	70,000	0,000E+0
5183,007	59,515	70,000	0,000E+0
5183,007	59,515	70,000	0,000E+0
5185,172	59,480	70,000	0,000E+0
5185,172	59,480	70,000	0,000E+0
5187,339	59,480	70,000	0,000E+0
5187,339	59,480	70,000	0,000E+0
5189,506	59,549	70,000	0,000E+0
5189,506	59,549	70,000	0,000E+0
5191,675	59,539	70,000	0,000E+0
5191,675	59,539	70,000	0,000E+0
5191,675	59,539	70,000	0,000E+0
5193,842	59,539	70,000	0,000E+0
5193,842	59,539	70,000	0,000E+0
5196,007	59,490	70,000	0,000E+0
5196,007	59,490	70,000	0,000E+0
5198,173	59,517	70,000	0,000E+0
5198,173	59,517	70,000	0,000E+0
5200,340	59,596	70,000	0,000E+0
5200,340	59,596	70,000	0,000E+0
5202,507	59,641	70,000	0,000E+0
5202,507	59,641	70,000	0,000E+0
5204,670	59,567	70,000	0,000E+0
5204,670	59,567	70,000	0,000E+0
5204,670	59,567	70,000	0,000E+0
5206,835	59,529	70,000	0,000E+0
5206,835	59,529	70,000	0,000E+0
5209,002	59,490	70,000	0,000E+0
5209,002	59,490	70,000	0,000E+0
5211,167	59,536	70,000	0,000E+0
5211,167	59,536	70,000	0,000E+0
5213,333	59,562	70,000	0,000E+0
5213,333	59,562	70,000	0,000E+0
5215,500	59,611	70,000	0,000E+0
5215,500	59,611	70,000	0,000E+0
5217,665	59,601	70,000	0,000E+0
5217,665	59,601	70,000	0,000E+0
5217,665	59,601	70,000	0,000E+0
5219,832	59,500	70,000	0,000E+0
5219,832	59,500	70,000	0,000E+0
5221,999	59,532	70,000	0,000E+0
5221,999	59,532	70,000	0,000E+0
5224,166	59,636	70,000	0,000E+0
5224,166	59,636	70,000	0,000E+0
5226,332	59,569	70,000	0,000E+0
5226,332	59,569	70,000	0,000E+0
5228,499	59,567	70,000	0,000E+0
5228,499	59,567	70,000	0,000E+0
5230,668	59,606	70,000	0,000E+0
5230,668	59,606	70,000	0,000E+0
5230,668	59,606	70,000	0,000E+0
5232,833	59,631	70,000	0,000E+0
5232,833	59,631	70,000	0,000E+0
5235,000	59,631	70,000	0,000E+0
5235,000	59,631	70,000	0,000E+0
5237,167	59,577	70,000	0,000E+0
5237,167	59,577	70,000	0,000E+0
5239,332	59,519	70,000	0,000E+0
5239,332	59,519	70,000	0,000E+0
5241,498	59,557	70,000	0,000E+0
5241,498	59,557	70,000	0,000E+0
5243,663	59,621	70,000	0,000E+0
5243,663	59,621	70,000	0,000E+0
5243,663	59,621	70,000	0,000E+0
5245,832	59,638	70,000	0,000E+0
5245,832	59,638	70,000	0,000E+0
5247,997	59,645	70,000	0,000E+0
5247,997	59,645	70,000	0,000E+0
5250,164	59,682	70,000	0,000E+0
5250,164	59,682	70,000	0,000E+0
5252,331	59,722	70,000	0,000E+0
5252,331	59,722	70,000	0,000E+0
5254,498	59,670	70,000	0,000E+0
5254,498	59,670	70,000	0,000E+0
5256,663	59,611	70,000	0,000E+0
5256,663	59,611	70,000	0,000E+0
5258,831	59,540	70,000	0,000E+0
5258,831	59,540	70,000	0,000E+0
5258,831	59,540	70,000	0,000E+0
5260,994	59,527	70,000	0,000E+0
5260,994	59,527	70,000	0,000E+0
5263,163	59,569	70,000	0,000E+0
5263,163	59,569	70,000	0,000E+0
5265,330	59,650	70,000	0,000E+0
5265,330	59,650	70,000	0,000E+0
5267,495	59,564	70,000	0,000E+0
5267,495	59,564	70,000	0,000E+0
5269,662	59,559	70,000	0,000E+0
5269,662	59,559	70,000	0,000E+0
5271,829	59,623	70,000	0,000E+0
5271,829	59,623	70,000	0,000E+0
5271,829	59,623	70,000	0,000E+0
5273,995	59,662	70,000	0,000E+0
5273,995	59,662	70,000	0,000E+0
5276,160	59,749	70,000	0,000E+0
5276,160	59,749	70,000	0,000E+0
5278,329	59,810	70,000	0,000E+0
5278,329	59,810	70,000	0,000E+0
5280,500	59,944	70,000	0,000E+0
5280,500	59,944	70,000	0,000E+0
5282,667	59,865	70,000	0,000E+0
5282,667	59,865	70,000	0,000E+0
5284,836	59,937	70,000	0,000E+0
5284,836	59,937	70,000	0,000E+0
5284,836	59,937	70,000	0,000E+0
5287,003	59,949	70,000	0,000E+0
5287,003	59,949	70,000	0,000E+0
5289,167	59,946	70,000	0,000E+0
5289,167	59,946	70,000	0,000E+0
5291,334	59,988	70,000	0,000E+0
5291,334	59,988	70,000	0,000E+0
5293,495	59,850	70,000	0,000E+0
5293,495	59,850	70,000	0,000E+0
5295,660	59,900	70,000	0,000E+0
5295,660	59,900	70,000	0,000E+0
5297,825	59,914	70,000	0,000E+0
5297,825	59,914	70,000	0,000E+0
5297,825	59,914	70,000	0,000E+0
5299,994	59,858	70,000	0,000E+0
5299,994	59,858	70,000	0,000E+0
5302,161	59,873	70,000	0,000E+0
5302,161	59,873	70,000	0,000E+0
5304,325	59,902	70,000	0,000E+0
5304,325	59,902	70,000	0,000E+0
5306,492	59,860	70,000	0,000E+0
5306,492	59,860	70,000	0,000E+0
5308,659	59,799	70,000	0,000E+0
5308,659	59,799	70,000	0,000E+0
5310,822	59,762	70,000	0,000E+0
5310,822	59,762	70,000	0,000E+0
5310,822	59,762	70,000	0,000E+0
5312,989	59,806	70,000	0,000E+0
5312,989	59,806	70,000	0,000E+0
5315,156	59,776	70,000	0,000E+0
5315,156	59,776	70,000	0,000E+0
5317,325	59,875	70,000	0,000E+0
5317,325	59,875	70,000	0,000E+0
5319,492	59,865	70,000	0,000E+0
5319,492	59,865	70,000	0,000E+0
5321,656	59,878	70,000	0,000E+0
5321,656	59,878	70,000	0,000E+0
5323,823	59,885	70,000	0,000E+0
5323,823	59,885	70,000	0,000E+0
5323,823	59,885	70,000	0,000E+0
5325,988	59,841	70,000	0,000E+0
5325,988	59,841	70,000	0,000E+0
5328,157	59,823	70,000	0,000E+0
5328,157	59,823	70,000	0,000E+0
5330,324	59,855	70,000	0,000E+0
5330,324	59,855	70,000	0,000E+0
5332,489	59,821	70,000	0,000E+0
5332,489	59,821	70,000	0,000E+0
5334,656	59,799	70,000	0,000E+0
5334,656	59,799	70,000	0,000E+0
5336,820	59,816	70,000	0,000E+0
5336,820	59,816	70,000	0,000E+0
5336,820	59,816	70,000	0,000E+0
5338,987	59,831	70,000	0,000E+0
5338,987	59,831	70,000	0,000E+0
5341,154	59,961	70,000	0,000E+0
5341,154	59,961	70,000	0,000E+0
5343,319	59,954	70,000	0,000E+0
5343,319	59,954	70,000	0,000E+0
5345,486	59,954	70,000	0,000E+0
5345,486	59,954	70,000	0,000E+0
5347,653	59,921	70,000	0,000E+0
5347,653	59,921	70,000	0,000E+0
5349,820	59,988	70,000	0,000E+0
5349,820	59,988	70,000	0,000E+0
5349,820	59,988	70,000	0,000E+0
5351,987	60,025	70,000	0,000E+0
5351,987	60,025	70,000	0,000E+0
5354,153	59,932	70,000	0,000E+0
5354,153	59,932	70,000	0,000E+0
5356,322	59,939	70,000	0,000E+0
5356,322	59,939	70,000	0,000E+0
5358,489	59,878	70,000	0,000E+0
5358,489	59,878	70,000	0,000E+0
5360,656	59,863	70,000	0,000E+0
5360,656	59,863	70,000	0,000E+0
5362,825	59,769	70,000	0,000E+0
5362,825	59,769	70,000	0,000E+0
5362,825	59,769	70,000	0,000E+0
5364,994	59,759	70,000	0,000E+0
5364,994	59,759	70,000	0,000E+0
5367,161	59,826	70,000	0,000E+0
5367,161	59,826	70,000	0,000E+0
5369,328	59,880	70,000	0,000E+0
5369,328	59,880	70,000	0,000E+0
5371,494	59,897	70,000	0,000E+0
5371,494	59,897	70,000	0,000E+0
5373,661	59,951	70,000	0,000E+0
5373,661	59,951	70,000	0,000E+0
5375,826	59,902	70,000	0,000E+0
5375,826	59,902	70,000	0,000E+0
5375,826	59,902	70,000	0,000E+0
5377,995	59,969	70,000	0,000E+0
5377,995	59,969	70,000	0,000E+0
5380,160	60,001	70,000	0,000E+0
5380,160	60,001	70,000	0,000E+0
5382,327	59,976	70,000	0,000E+0
5382,327	59,976	70,000	0,000E+0
5384,492	59,934	70,000	0,000E+0
5384,492	59,934	70,000	0,000E+0
5386,661	59,882	70,000	0,000E+0
5386,661	59,882	70,000	0,000E+0
5388,825	59,858	70,000	0,000E+0
5388,825	59,858	70,000	0,000E+0
5388,825	59,858	70,000	0,000E+0
5390,992	59,873	70,000	0,000E+0
5390,992	59,873	70,000	0,000E+0
5393,161	59,954	70,000	0,000E+0
5393,161	59,954	70,000	0,000E+0
5395,326	60,085	70,000	0,000E+0
5395,326	60,085	70,000	0,000E+0
5397,493	60,164	70,000	0,000E+0
5397,493	60,164	70,000	0,000E+0
5399,662	60,149	70,000	0,000E+0
5399,662	60,149	70,000	0,000E+0
5401,829	60,127	70,000	0,000E+0
5401,829	60,127	70,000	0,000E+0
5401,829	60,127	70,000	0,000E+0
5403,997	60,090	70,000	0,000E+0
5403,997	60,090	70,000	0,000E+0
5406,162	60,077	70,000	0,000E+0
5406,162	60,077	70,000	0,000E+0
5408,329	60,127	70,000	0,000E+0
5408,329	60,127	70,000	0,000E+0
5410,495	60,178	70,000	0,000E+0
5410,495	60,178	70,000	0,000E+0
5412,662	60,243	70,000	0,000E+0
5412,662	60,243	70,000	0,000E+0
5414,827	60,312	70,000	0,000E+0
5414,827	60,312	70,000	0,000E+0
5414,827	60,312	70,000	0,000E+0
5416,994	60,243	70,000	0,000E+0
5416,994	60,243	70,000	0,000E+0
5419,158	60,312	70,000	0,000E+0
5419,158	60,312	70,000	0,000E+0
5421,325	60,361	70,000	0,000E+0
5421,325	60,361	70,000	0,000E+0
5423,492	60,334	70,000	0,000E+0
5423,492	60,334	70,000	0,000E+0
5425,658	60,343	70,000	0,000E+0
5425,658	60,343	70,000	0,000E+0
5427,827	60,279	70,000	0,000E+0
5427,827	60,279	70,000	0,000E+0
5427,827	60,279	70,000	0,000E+0
5429,994	60,289	70,000	0,000E+0
5429,994	60,289	70,000	0,000E+0
5432,161	60,343	70,000	0,000E+0
5432,161	60,343	70,000	0,000E+0
5434,327	60,191	70,000	0,000E+0
5434,327	60,191	70,000	0,000E+0
5436,492	60,139	70,000	0,000E+0
5436,492	60,139	70,000	0,000E+0
5438,659	60,164	70,000	0,000E+0
5438,659	60,164	70,000	0,000E+0
5440,826	60,149	70,000	0,000E+0
5440,826	60,149	70,000	0,000E+0
5440,826	60,149	70,000	0,000E+0
5442,992	60,107	70,000	0,000E+0
5442,992	60,107	70,000	0,000E+0
5445,159	60,191	70,000	0,000E+0
5445,159	60,191	70,000	0,000E+0
5447,324	60,193	70,000	0,000E+0
5447,324	60,193	70,000	0,000E+0
5449,489	60,213	70,000	0,000E+0
5449,489	60,213	70,000	0,000E+0
5451,655	60,297	70,000	0,000E+0
5451,655	60,297	70,000	0,000E+0
5453,818	60,324	70,000	0,000E+0
5453,818	60,324	70,000	0,000E+0
5453,818	60,324	70,000	0,000E+0
5455,985	60,309	70,000	0,000E+0
5455,985	60,309	70,000	0,000E+0
5458,152	60,203	70,000	0,000E+0
5458,152	60,203	70,000	0,000E+0
5460,317	60,252	70,000	0,000E+0
5460,317	60,252	70,000	0,000E+0
5462,483	60,270	70,000	0,000E+0
5462,483	60,270	70,000	0,000E+0
5464,650	60,321	70,000	0,000E+0
5464,650	60,321	70,000	0,000E+0
5466,817	60,277	70,000	0,000E+0
5466,817	60,277	70,000	0,000E+0
5466,817	60,277	70,000	0,000E+0
5468,984	60,306	70,000	0,000E+0
5468,984	60,306	70,000	0,000E+0
5471,148	60,201	70,000	0,000E+0
5471,148	60,201	70,000	0,000E+0
5473,315	60,243	70,000	0,000E+0
5473,315	60,243	70,000	0,000E+0
5475,482	60,287	70,000	0,000E+0
5475,482	60,287	70,000	0,000E+0
5477,647	60,320	70,000	0,000E+0
5477,647	60,320	70,000	0,000E+0
5479,813	60,332	70,000	0,000E+0
5479,813	60,332	70,000	0,000E+0
5479,813	60,332	70,000	0,000E+0
5481,984	60,294	70,000	0,000E+0
5481,984	60,294	70,000	0,000E+0
5484,153	60,257	70,000	0,000E+0
5484,153	60,257	70,000	0,000E+0
5486,323	60,272	70,000	0,000E+0
5486,323	60,272	70,000	0,000E+0
5488,490	60,267	70,000	0,000E+0
5488,490	60,267	70,000	0,000E+0
5490,655	60,376	70,000	0,000E+0
5490,655	60,376	70,000	0,000E+0
5492,824	60,423	70,000	0,000E+0
5492,824	60,423	70,000	0,000E+0
5492,824	60,423	70,000	0,000E+0
5494,992	60,442	70,000	0,000E+0
5494,992	60,442	70,000	0,000E+0
5497,157	60,403	70,000	0,000E+0
5497,157	60,403	70,000	0,000E+0
5499,324	60,432	70,000	0,000E+0
5499,324	60,432	70,000	0,000E+0
5501,491	60,543	70,000	0,000E+0
5501,491	60,543	70,000	0,000E+0
5503,658	60,538	70,000	0,000E+0
5503,658	60,538	70,000	0,000E+0
5505,824	60,546	70,000	0,000E+0
5505,824	60,546	70,000	0,000E+0
5505,824	60,546	70,000	0,000E+0
5507,991	60,506	70,000	0,000E+0
5507,991	60,506	70,000	0,000E+0
5510,158	60,449	70,000	0,000E+0
5510,158	60,449	70,000	0,000E+0
5512,325	60,378	70,000	0,000E+0
5512,325	60,378	70,000	0,000E+0
5514,489	60,332	70,000	0,000E+0
5514,489	60,332	70,000	0,000E+0
5516,656	60,352	70,000	0,000E+0
5516,656	60,352	70,000	0,000E+0
5518,821	60,406	70,000	0,000E+0
5518,821	60,406	70,000	0,000E+0
5518,821	60,406	70,000	0,000E+0
5520,984	60,485	70,000	0,000E+0
5520,984	60,485	70,000	0,000E+0
5523,151	60,519	70,000	0,000E+0
5523,151	60,519	70,000	0,000E+0
5525,317	60,612	70,000	0,000E+0
5525,317	60,612	70,000	0,000E+0
5527,484	60,590	70,000	0,000E+0
5527,484	60,590	70,000	0,000E+0
5529,651	60,516	70,000	0,000E+0
5529,651	60,516	70,000	0,000E+0
5531,820	60,497	70,000	0,000E+0
5531,820	60,497	70,000	0,000E+0
5531,820	60,497	70,000	0,000E+0
5533,986	60,460	70,000	0,000E+0
5533,986	60,460	70,000	0,000E+0
5536,151	60,652	70,000	0,000E+0
5536,151	60,652	70,000	0,000E+0
5538,318	60,674	70,000	0,000E+0
5538,318	60,674	70,000	0,000E+0
5540,483	60,625	70,000	0,000E+0
5540,483	60,625	70,000	0,000E+0
5542,653	60,605	70,000	0,000E+0
5542,653	60,605	70,000	0,000E+0
5544,820	60,592	70,000	0,000E+0
5544,820	60,592	70,000	0,000E+0
5544,820	60,592	70,000	0,000E+0
5546,987	60,639	70,000	0,000E+0
5546,987	60,639	70,000	0,000E+0
5549,154	60,644	70,000	0,000E+0
5549,154	60,644	70,000	0,000E+0
5551,318	60,625	70,000	0,000E+0
5551,318	60,625	70,000	0,000E+0
5553,485	60,595	70,000	0,000E+0
5553,485	60,595	70,000	0,000E+0
5555,650	60,657	70,000	0,000E+0
5555,650	60,657	70,000	0,000E+0
5557,815	60,597	70,000	0,000E+0
5557,815	60,597	70,000	0,000E+0
5557,815	60,597	70,000	0,000E+0
5559,982	60,521	70,000	0,000E+0
5559,982	60,521	70,000	0,000E+0
5562,148	60,522	70,000	0,000E+0
5562,148	60,522	70,000	0,000E+0
5564,313	60,556	70,000	0,000E+0
5564,313	60,556	70,000	0,000E+0
5566,480	60,598	70,000	0,000E+0
5566,480	60,598	70,000	0,000E+0
5568,649	60,576	70,000	0,000E+0
5568,649	60,576	70,000	0,000E+0
5570,813	60,549	70,000	0,000E+0
5570,813	60,549	70,000	0,000E+0
5570,813	60,549	70,000	0,000E+0
5572,982	60,514	70,000	0,000E+0
5572,982	60,514	70,000	0,000E+0
5575,149	60,477	70,000	0,000E+0
5575,149	60,477	70,000	0,000E+0
5577,277	60,477	70,000	0,000E+0
5577,277	60,477	70,000	0,000E+0
5579,456	60,751	70,000	0,000E+0
5579,456	60,751	70,000	0,000E+0
5581,627	60,733	70,000	0,000E+0
5581,627	60,733	70,000	0,000E+0
5583,794	60,642	70,000	0,000E+0
5583,794	60,642	70,000	0,000E+0
5583,794	60,642	70,000	0,000E+0
5585,961	60,681	70,000	0,000E+0
5585,961	60,681	70,000	0,000E+0
5588,129	60,573	70,000	0,000E+0
5588,129	60,573	70,000	0,000E+0
5590,294	60,561	70,000	0,000E+0
5590,294	60,561	70,000	0,000E+0
5592,463	60,518	70,000	0,000E+0
5592,463	60,518	70,000	0,000E+0
5594,628	60,526	70,000	0,000E+0
5594,628	60,526	70,000	0,000E+0
5596,795	60,563	70,000	0,000E+0
5596,795	60,563	70,000	0,000E+0
5596,795	60,563	70,000	0,000E+0
5598,961	60,629	70,000	0,000E+0
5598,961	60,629	70,000	0,000E+0
5601,128	60,627	70,000	0,000E+0
5601,128	60,627	70,000	0,000E+0
5603,295	60,657	70,000	0,000E+0
5603,295	60,657	70,000	0,000E+0
5605,464	60,653	70,000	0,000E+0
5605,464	60,653	70,000	0,000E+0
5607,628	60,630	70,000	0,000E+0
5607,628	60,630	70,000	0,000E+0
5609,795	60,660	70,000	0,000E+0
5609,795	60,660	70,000	0,000E+0
5609,795	60,660	70,000	0,000E+0
5611,962	60,692	70,000	0,000E+0
5611,962	60,692	70,000	0,000E+0
5614,127	60,625	70,000	0,000E+0
5614,127	60,625	70,000	0,000E+0
5616,296	60,539	70,000	0,000E+0
5616,296	60,539	70,000	0,000E+0
5618,462	60,606	70,000	0,000E+0
5618,462	60,606	70,000	0,000E+0
5620,629	60,643	70,000	0,000E+0
5620,629	60,643	70,000	0,000E+0
5622,798	60,657	70,000	0,000E+0
5622,798	60,657	70,000	0,000E+0
5622,798	60,657	70,000	0,000E+0
5624,965	60,687	70,000	0,000E+0
5624,965	60,687	70,000	0,000E+0
5627,130	60,655	70,000	0,000E+0
5627,130	60,655	70,000	0,000E+0
5629,296	60,682	70,000	0,000E+0
5629,296	60,682	70,000	0,000E+0
5631,463	60,703	70,000	0,000E+0
5631,463	60,703	70,000	0,000E+0
5633,630	60,630	70,000	0,000E+0
5633,630	60,630	70,000	0,000E+0
5635,799	60,652	70,000	0,000E+0
5635,799	60,652	70,000	0,000E+0
5635,799	60,652	70,000	0,000E+0
5637,963	60,714	70,000	0,000E+0
5637,963	60,714	70,000	0,000E+0
5640,132	60,830	70,000	0,000E+0
5640,132	60,830	70,000	0,000E+0
5642,299	60,832	70,000	0,000E+0
5642,299	60,832	70,000	0,000E+0
5644,468	60,873	70,000	0,000E+0
5644,468	60,873	70,000	0,000E+0
5646,637	60,777	70,000	0,000E+0
5646,637	60,777	70,000	0,000E+0
5648,801	60,719	70,000	0,000E+0
5648,801	60,719	70,000	0,000E+0
5648,801	60,719	70,000	0,000E+0
5650,968	60,765	70,000	0,000E+0
5650,968	60,765	70,000	0,000E+0
5653,135	60,778	70,000	0,000E+0
5653,135	60,778	70,000	0,000E+0
5655,300	60,731	70,000	0,000E+0
5655,300	60,731	70,000	0,000E+0
5657,469	60,639	70,000	0,000E+0
5657,469	60,639	70,000	0,000E+0
5659,636	60,676	70,000	0,000E+0
5659,636	60,676	70,000	0,000E+0
5661,804	60,735	70,000	0,000E+0
5661,804	60,735	70,000	0,000E+0
5661,804	60,735	70,000	0,000E+0
5663,971	60,723	70,000	0,000E+0
5663,971	60,723	70,000	0,000E+0
5666,138	60,821	70,000	0,000E+0
5666,138	60,821	70,000	0,000E+0
5668,307	60,931	70,000	0,000E+0
5668,307	60,931	70,000	0,000E+0
5670,473	61,007	70,000	0,000E+0
5670,473	61,007	70,000	0,000E+0
5672,638	60,952	70,000	0,000E+0
5672,638	60,952	70,000	0,000E+0
5674,805	60,874	70,000	0,000E+0
5674,805	60,874	70,000	0,000E+0
5674,805	60,874	70,000	0,000E+0
5676,972	60,861	70,000	0,000E+0
5676,972	60,861	70,000	0,000E+0
5679,138	60,812	70,000	0,000E+0
5679,138	60,812	70,000	0,000E+0
5681,305	60,854	70,000	0,000E+0
5681,305	60,854	70,000	0,000E+0
5683,472	60,921	70,000	0,000E+0
5683,472	60,921	70,000	0,000E+0
5685,641	60,845	70,000	0,000E+0
5685,641	60,845	70,000	0,000E+0
5687,807	60,769	70,000	0,000E+0
5687,807	60,769	70,000	0,000E+0
5687,807	60,769	70,000	0,000E+0
5689,974	60,754	70,000	0,000E+0
5689,974	60,754	70,000	0,000E+0
5692,143	60,739	70,000	0,000E+0
5692,143	60,739	70,000	0,000E+0
5694,312	60,806	70,000	0,000E+0
5694,312	60,806	70,000	0,000E+0
5696,479	60,932	70,000	0,000E+0
5696,479	60,932	70,000	0,000E+0
5698,645	60,920	70,000	0,000E+0
5698,645	60,920	70,000	0,000E+0
5700,810	60,818	70,000	0,000E+0
5700,810	60,818	70,000	0,000E+0
5700,810	60,818	70,000	0,000E+0
5702,975	60,816	70,000	0,000E+0
5702,975	60,816	70,000	0,000E+0
5705,140	60,786	70,000	0,000E+0
5705,140	60,786	70,000	0,000E+0
5707,308	60,835	70,000	3,100E-1
5707,308	60,835	70,000	3,100E-1
5709,473	60,912	70,000	3,100E-1
5709,473	60,912	70,000	3,100E-1
5711,638	60,929	70,000	3,100E-1
5711,638	60,929	70,000	3,100E-1
5713,805	60,924	70,000	3,100E-1
5713,805	60,924	70,000	3,100E-1
5713,805	60,924	70,000	3,100E-1
5715,969	60,879	70,000	3,100E-1
5715,969	60,879	70,000	3,100E-1
5718,136	60,874	70,000	3,100E-1
5718,136	60,874	70,000	3,100E-1
5720,305	60,914	70,000	3,100E-1
5720,305	60,914	70,000	3,100E-1
5722,470	60,899	70,000	3,100E-1
5722,470	60,899	70,000	3,100E-1
5724,637	60,917	70,000	3,100E-1
5724,637	60,917	70,000	3,100E-1
5726,804	61,067	70,000	3,100E-1
5726,804	61,067	70,000	3,100E-1
5726,804	61,067	70,000	3,100E-1
5728,970	61,069	70,000	3,100E-1
5728,970	61,069	70,000	3,100E-1
5731,139	61,049	70,000	3,100E-1
5731,139	61,049	70,000	3,100E-1
5733,306	61,055	70,000	3,100E-1
5733,306	61,055	70,000	3,100E-1
5735,472	61,069	70,000	3,100E-1
5735,472	61,069	70,000	3,100E-1
5737,643	61,074	70,000	3,100E-1
5737,643	61,074	70,000	3,100E-1
5739,810	60,973	70,000	3,100E-1
5739,810	60,973	70,000	3,100E-1
5739,810	60,973	70,000	3,100E-1
5741,977	60,791	70,000	3,100E-1
5741,977	60,791	70,000	3,100E-1
5744,108	60,791	70,000	3,100E-1
5744,108	60,791	70,000	3,100E-1
5746,288	60,987	70,000	3,100E-1
5746,288	60,987	70,000	3,100E-1
5748,455	61,083	70,000	3,100E-1
5748,455	61,083	70,000	3,100E-1
5750,622	61,162	70,000	3,100E-1
5750,622	61,162	70,000	3,100E-1
5752,787	61,133	70,000	3,100E-1
5752,787	61,133	70,000	3,100E-1
5752,787	61,133	70,000	3,100E-1
5754,953	60,933	70,000	3,100E-1
5754,953	60,933	70,000	3,100E-1
5757,082	60,933	70,000	3,100E-1
5757,082	60,933	70,000	3,100E-1
5759,261	61,182	70,000	3,100E-1
5759,261	61,182	70,000	3,100E-1
5761,428	61,168	70,000	3,100E-1
5761,428	61,168	70,000	3,100E-1
5763,597	61,249	70,000	3,100E-1
5763,597	61,249	70,000	3,100E-1
5765,765	61,277	70,000	3,100E-1
5765,765	61,277	70,000	3,100E-1
5767,930	61,202	70,000	3,100E-1
5767,930	61,202	70,000	3,100E-1
5767,930	61,202	70,000	3,100E-1
5770,099	61,104	70,000	3,100E-1
5770,099	61,104	70,000	3,100E-1
5772,264	61,143	70,000	3,100E-1
5772,264	61,143	70,000	3,100E-1
5774,431	61,094	70,000	3,100E-1
5774,431	61,094	70,000	3,100E-1
5776,597	61,116	70,000	3,100E-1
5776,597	61,116	70,000	3,100E-1
5778,764	61,126	70,000	3,100E-1
5778,764	61,126	70,000	3,100E-1
5780,931	61,111	70,000	3,100E-1
5780,931	61,111	70,000	3,100E-1
5780,931	61,111	70,000	3,100E-1
5783,096	61,094	70,000	3,100E-1
5783,096	61,094	70,000	3,100E-1
5785,263	61,166	70,000	3,100E-1
5785,263	61,166	70,000	3,100E-1
5787,429	61,173	70,000	3,100E-1
5787,429	61,173	70,000	3,100E-1
5789,594	61,165	70,000	3,100E-1
5789,594	61,165	70,000	3,100E-1
5791,763	61,224	70,000	3,100E-1
5791,763	61,224	70,000	3,100E-1
5793,932	61,227	70,000	3,100E-1
5793,932	61,227	70,000	3,100E-1
5793,932	61,227	70,000	3,100E-1
5796,097	61,254	70,000	3,100E-1
5796,097	61,254	70,000	3,100E-1
5798,261	61,212	70,000	3,100E-1
5798,261	61,212	70,000	3,100E-1
5800,428	61,180	70,000	3,100E-1
5800,428	61,180	70,000	3,100E-1
5802,589	61,178	70,000	3,100E-1
5802,589	61,178	70,000	3,100E-1
5804,756	61,200	70,000	3,100E-1
5804,756	61,200	70,000	3,100E-1
5806,922	61,219	70,000	3,100E-1
5806,922	61,219	70,000	3,100E-1
5806,922	61,219	70,000	3,100E-1
5809,089	61,199	70,000	3,100E-1
5809,089	61,199	70,000	3,100E-1
5811,252	61,219	70,000	3,100E-1
5811,252	61,219	70,000	3,100E-1
5813,419	61,285	70,000	3,100E-1
5813,419	61,285	70,000	3,100E-1
5815,586	61,255	70,000	3,100E-1
5815,586	61,255	70,000	3,100E-1
5817,750	61,283	70,000	3,100E-1
5817,750	61,283	70,000	3,100E-1
5819,915	61,204	70,000	3,100E-1
5819,915	61,204	70,000	3,100E-1
5819,915	61,204	70,000	3,100E-1
5822,084	61,216	70,000	3,100E-1
5822,084	61,216	70,000	3,100E-1
5824,253	61,297	70,000	3,100E-1
5824,253	61,297	70,000	3,100E-1
5826,418	61,271	70,000	3,100E-1
5826,418	61,271	70,000	3,100E-1
5828,584	61,280	70,000	3,100E-1
5828,584	61,280	70,000	3,100E-1
5830,753	61,290	70,000	3,100E-1
5830,753	61,290	70,000	3,100E-1
5832,918	61,327	70,000	3,100E-1
5832,918	61,327	70,000	3,100E-1
5832,918	61,327	70,000	3,100E-1
5835,085	61,305	70,000	3,100E-1
5835,085	61,305	70,000	3,100E-1
5837,252	61,209	70,000	3,100E-1
5837,252	61,209	70,000	3,100E-1
5839,416	61,246	70,000	3,100E-1
5839,416	61,246	70,000	3,100E-1
5841,583	61,206	70,000	3,100E-1
5841,583	61,206	70,000	3,100E-1
5843,750	61,186	70,000	3,100E-1
5843,750	61,186	70,000	3,100E-1
5845,915	61,234	70,000	3,100E-1
5845,915	61,234	70,000	3,100E-1
5845,915	61,234	70,000	3,100E-1
5848,082	61,261	70,000	3,100E-1
5848,082	61,261	70,000	3,100E-1
5850,249	61,312	70,000	3,100E-1
5850,249	61,312	70,000	3,100E-1
5852,415	61,401	70,000	3,100E-1
5852,415	61,401	70,000	3,100E-1
5854,582	61,470	70,000	3,100E-1
5854,582	61,470	70,000	3,100E-1
5856,745	61,394	70,000	3,100E-1
5856,745	61,394	70,000	3,100E-1
5858,916	61,305	70,000	3,100E-1
5858,916	61,305	70,000	3,100E-1
5858,916	61,305	70,000	3,100E-1
5861,083	61,406	70,000	3,100E-1
5861,083	61,406	70,000	3,100E-1
5863,247	61,441	70,000	3,100E-1
5863,247	61,441	70,000	3,100E-1
5865,416	61,460	70,000	3,100E-1
5865,416	61,460	70,000	3,100E-1
5867,581	61,453	70,000	3,100E-1
5867,581	61,453	70,000	3,100E-1
5869,748	61,584	70,000	3,100E-1
5869,748	61,584	70,000	3,100E-1
5871,915	61,537	70,000	3,100E-1
5871,915	61,537	70,000	3,100E-1
5871,915	61,537	70,000	3,100E-1
5874,081	61,552	70,000	3,100E-1
5874,081	61,552	70,000	3,100E-1
5876,248	61,522	70,000	3,100E-1
5876,248	61,522	70,000	3,100E-1
5878,413	61,535	70,000	3,100E-1
5878,413	61,535	70,000	3,100E-1
5880,578	61,517	70,000	3,100E-1
5880,578	61,517	70,000	3,100E-1
5882,743	61,487	70,000	3,100E-1
5882,743	61,487	70,000	3,100E-1
5884,909	61,505	70,000	3,100E-1
5884,909	61,505	70,000	3,100E-1
5884,909	61,505	70,000	3,100E-1
5887,074	61,583	70,000	3,100E-1
5887,074	61,583	70,000	3,100E-1
5889,241	61,630	70,000	3,100E-1
5889,241	61,630	70,000	3,100E-1
5891,408	61,633	70,000	3,100E-1
5891,408	61,633	70,000	3,100E-1
5893,577	61,648	70,000	3,100E-1
5893,577	61,648	70,000	3,100E-1
5895,745	61,579	70,000	3,100E-1
5895,745	61,579	70,000	3,100E-1
5897,912	61,470	70,000	3,100E-1
5897,912	61,470	70,000	3,100E-1
5897,912	61,470	70,000	3,100E-1
5900,079	61,519	70,000	3,100E-1
5900,079	61,519	70,000	3,100E-1
5902,244	61,517	70,000	3,100E-1
5902,244	61,517	70,000	3,100E-1
5904,411	61,593	70,000	3,100E-1
5904,411	61,593	70,000	3,100E-1
5906,578	61,571	70,000	3,100E-1
5906,578	61,571	70,000	3,100E-1
5908,743	61,559	70,000	3,100E-1
5908,743	61,559	70,000	3,100E-1
5910,909	61,650	70,000	3,100E-1
5910,909	61,650	70,000	3,100E-1
5910,909	61,650	70,000	3,100E-1
5913,076	61,558	70,000	3,100E-1
5913,076	61,558	70,000	3,100E-1
5915,241	61,605	70,000	3,100E-1
5915,241	61,605	70,000	3,100E-1
5917,408	61,652	70,000	3,100E-1
5917,408	61,652	70,000	3,100E-1
5919,575	61,629	70,000	3,100E-1
5919,575	61,629	70,000	3,100E-1
5921,742	61,735	70,000	3,100E-1
5921,742	61,735	70,000	3,100E-1
5923,908	61,755	70,000	3,100E-1
5923,908	61,755	70,000	3,100E-1
5923,908	61,755	70,000	3,100E-1
5926,075	61,772	70,000	3,100E-1
5926,075	61,772	70,000	3,100E-1
5928,242	61,664	70,000	3,100E-1
5928,242	61,664	70,000	3,100E-1
5930,409	61,631	70,000	3,100E-1
5930,409	61,631	70,000	3,100E-1
5932,574	61,681	70,000	3,100E-1
5932,574	61,681	70,000	3,100E-1
5934,740	61,671	70,000	3,100E-1
5934,740	61,671	70,000	3,100E-1
5936,907	61,594	70,000	3,100E-1
5936,907	61,594	70,000	3,100E-1
5936,907	61,594	70,000	3,100E-1
5939,073	61,586	70,000	3,100E-1
5939,073	61,586	70,000	3,100E-1
5941,240	61,723	70,000	3,100E-1
5941,240	61,723	70,000	3,100E-1
5943,405	61,748	70,000	3,100E-1
5943,405	61,748	70,000	3,100E-1
5945,572	61,772	70,000	3,100E-1
5945,572	61,772	70,000	3,100E-1
5947,739	61,794	70,000	3,100E-1
5947,739	61,794	70,000	3,100E-1
5949,905	61,742	70,000	3,100E-1
5949,905	61,742	70,000	3,100E-1
5949,905	61,742	70,000	3,100E-1
5952,070	61,776	70,000	3,100E-1
5952,070	61,776	70,000	3,100E-1
5954,237	61,836	70,000	3,100E-1
5954,237	61,836	70,000	3,100E-1
5956,403	61,836	70,000	3,100E-1
5956,403	61,836	70,000	3,100E-1
5958,570	61,848	70,000	3,100E-1
5958,570	61,848	70,000	3,100E-1
5960,737	61,887	70,000	3,100E-1
5960,737	61,887	70,000	3,100E-1
5962,902	61,872	70,000	3,100E-1
5962,902	61,872	70,000	3,100E-1
5962,902	61,872	70,000	3,100E-1
5965,069	61,855	70,000	3,100E-1
5965,069	61,855	70,000	3,100E-1
5967,235	61,900	70,000	3,100E-1
5967,235	61,900	70,000	3,100E-1
5969,400	61,902	70,000	3,100E-1
5969,400	61,902	70,000	3,100E-1
5971,567	62,040	70,000	3,100E-1
5971,567	62,040	70,000	3,100E-1
5973,736	61,968	70,000	3,100E-1
5973,736	61,968	70,000	3,100E-1
5975,903	61,914	70,000	3,100E-1
5975,903	61,914	70,000	3,100E-1
5975,903	61,914	70,000	3,100E-1
5978,071	61,971	70,000	3,100E-1
5978,071	61,971	70,000	3,100E-1
5980,236	62,131	70,000	3,100E-1
5980,236	62,131	70,000	3,100E-1
5982,403	62,045	70,000	3,100E-1
5982,403	62,045	70,000	3,100E-1
5984,572	62,013	70,000	3,100E-1
5984,572	62,013	70,000	3,100E-1
5986,738	62,089	70,000	3,100E-1
5986,738	62,089	70,000	3,100E-1
